"","subj","trial","choice","roi","rt","upleftval","uprightval","downleftval","downrightval","fixdur","fixnum","revfixnum"
"1",9,1,0,4,5262.1,252,177.1271,209,293,183.78,1,13
"2",9,1,0,2,5262.1,252,177.1271,209,293,239.95,2,12
"3",9,1,0,1,5262.1,252,177.1271,209,293,240.12,3,11
"4",9,1,0,3,5262.1,252,177.1271,209,293,332.1,4,10
"5",9,1,0,2,5262.1,252,177.1271,209,293,204,5,9
"6",9,1,0,4,5262.1,252,177.1271,209,293,466.2,6,8
"7",9,1,0,1,5262.1,252,177.1271,209,293,608,7,7
"8",9,1,0,3,5262.1,252,177.1271,209,293,588.1,8,6
"9",9,1,0,1,5262.1,252,177.1271,209,293,220.1,9,5
"10",9,1,0,2,5262.1,252,177.1271,209,293,256.5,10,4
"11",9,1,0,3,5262.1,252,177.1271,209,293,266,11,3
"12",9,1,0,2,5262.1,252,177.1271,209,293,588.6,12,2
"13",9,1,0,3,5262.1,252,177.1271,209,293,108.7,13,1
"14",9,2,0,1,7743.8,216.7874,127,58,117,351.14,1,20
"15",9,2,0,3,7743.8,216.7874,127,58,117,192.06,2,19
"16",9,2,0,4,7743.8,216.7874,127,58,117,125.94,3,18
"17",9,2,0,2,7743.8,216.7874,127,58,117,200.16,4,17
"18",9,2,0,4,7743.8,216.7874,127,58,117,356.1,5,16
"19",9,2,0,2,7743.8,216.7874,127,58,117,68.1000000000001,6,15
"20",9,2,0,1,7743.8,216.7874,127,58,117,498.2,7,14
"21",9,2,0,3,7743.8,216.7874,127,58,117,349.9,8,13
"22",9,2,0,4,7743.8,216.7874,127,58,117,1.99999999999978,9,12
"23",9,2,0,3,7743.8,216.7874,127,58,117,202.8,10,11
"24",9,2,0,1,7743.8,216.7874,127,58,117,916.1,11,10
"25",9,2,0,3,7743.8,216.7874,127,58,117,97.9999999999999,12,9
"26",9,2,0,1,7743.8,216.7874,127,58,117,1038.1,13,8
"27",9,2,0,2,7743.8,216.7874,127,58,117,304.1,14,7
"28",9,2,0,4,7743.8,216.7874,127,58,117,2.2000000000002,15,6
"29",9,2,0,3,7743.8,216.7874,127,58,117,5.99999999999934,16,5
"30",9,2,0,4,7743.8,216.7874,127,58,117,6.60000000000061,17,4
"31",9,2,0,2,7743.8,216.7874,127,58,117,593.3,18,3
"32",9,2,0,4,7743.8,216.7874,127,58,117,1144.6,19,2
"33",9,2,0,3,7743.8,216.7874,127,58,117,494.9,20,1
"34",9,3,1,1,8794.7,30.9468,99,240,85,31.97,1,22
"35",9,3,1,3,8794.7,30.9468,99,240,85,207.96,2,21
"36",9,3,1,4,8794.7,30.9468,99,240,85,154,3,20
"37",9,3,1,2,8794.7,30.9468,99,240,85,334,4,19
"38",9,3,1,4,8794.7,30.9468,99,240,85,146,5,18
"39",9,3,1,1,8794.7,30.9468,99,240,85,56.1,6,17
"40",9,3,1,3,8794.7,30.9468,99,240,85,452.6,7,16
"41",9,3,1,1,8794.7,30.9468,99,240,85,692,8,15
"42",9,3,1,2,8794.7,30.9468,99,240,85,205.7,9,14
"43",9,3,1,1,8794.7,30.9468,99,240,85,5.59999999999983,10,13
"44",9,3,1,3,8794.7,30.9468,99,240,85,89.9999999999999,11,12
"45",9,3,1,4,8794.7,30.9468,99,240,85,4.10000000000021,12,11
"46",9,3,1,1,8794.7,30.9468,99,240,85,946,13,10
"47",9,3,1,2,8794.7,30.9468,99,240,85,236,14,9
"48",9,3,1,3,8794.7,30.9468,99,240,85,3.3000000000003,15,8
"49",9,3,1,4,8794.7,30.9468,99,240,85,5.79999999999981,16,7
"50",9,3,1,2,8794.7,30.9468,99,240,85,114.100000000001,17,6
"51",9,3,1,4,8794.7,30.9468,99,240,85,1050.1,18,5
"52",9,3,1,3,8794.7,30.9468,99,240,85,364.100000000001,19,4
"53",9,3,1,1,8794.7,30.9468,99,240,85,204.7,20,3
"54",9,3,1,2,8794.7,30.9468,99,240,85,161.9,21,2
"55",9,3,1,3,8794.7,30.9468,99,240,85,1018.9,22,1
"56",9,4,0,1,13963.4,76,37.6023,171,299,158,1,26
"57",9,4,0,2,13963.4,76,37.6023,171,299,219.93,2,25
"58",9,4,0,4,13963.4,76,37.6023,171,299,3.80000000000003,3,24
"59",9,4,0,3,13963.4,76,37.6023,171,299,150,4,23
"60",9,4,0,2,13963.4,76,37.6023,171,299,442,5,22
"61",9,4,0,4,13963.4,76,37.6023,171,299,3.89999999999979,6,21
"62",9,4,0,3,13963.4,76,37.6023,171,299,11.8999999999998,7,20
"63",9,4,0,1,13963.4,76,37.6023,171,299,399.9,8,19
"64",9,4,0,3,13963.4,76,37.6023,171,299,2338,9,18
"65",9,4,0,4,13963.4,76,37.6023,171,299,5.79999999999981,10,17
"66",9,4,0,2,13963.4,76,37.6023,171,299,1180.2,11,16
"67",9,4,0,4,13963.4,76,37.6023,171,299,662.1,12,15
"68",9,4,0,2,13963.4,76,37.6023,171,299,96.2000000000005,13,14
"69",9,4,0,4,13963.4,76,37.6023,171,299,2.10000000000043,14,13
"70",9,4,0,2,13963.4,76,37.6023,171,299,11.8999999999998,15,12
"71",9,4,0,3,13963.4,76,37.6023,171,299,2405.7,16,11
"72",9,4,0,1,13963.4,76,37.6023,171,299,938.199999999998,17,10
"73",9,4,0,2,13963.4,76,37.6023,171,299,254.000000000001,18,9
"74",9,4,0,4,13963.4,76,37.6023,171,299,1.9000000000009,19,8
"75",9,4,0,3,13963.4,76,37.6023,171,299,2.10000000000043,20,7
"76",9,4,0,4,13963.4,76,37.6023,171,299,6.00000000000023,21,6
"77",9,4,0,2,13963.4,76,37.6023,171,299,362.500000000001,22,5
"78",9,4,0,4,13963.4,76,37.6023,171,299,353.400000000001,23,4
"79",9,4,0,3,13963.4,76,37.6023,171,299,394.8,24,3
"80",9,4,0,4,13963.4,76,37.6023,171,299,197.899999999999,25,2
"81",9,4,0,2,13963.4,76,37.6023,171,299,178.800000000001,26,1
"82",9,5,1,4,12428.9,110,169,296.8188,231,141.83,1,21
"83",9,5,1,3,12428.9,110,169,296.8188,231,8.14000000000004,2,20
"84",9,5,1,2,12428.9,110,169,296.8188,231,197.81,3,19
"85",9,5,1,1,12428.9,110,169,296.8188,231,188.1,4,18
"86",9,5,1,3,12428.9,110,169,296.8188,231,200,5,17
"87",9,5,1,1,12428.9,110,169,296.8188,231,312.1,6,16
"88",9,5,1,2,12428.9,110,169,296.8188,231,240,7,15
"89",9,5,1,4,12428.9,110,169,296.8188,231,480.2,8,14
"90",9,5,1,3,12428.9,110,169,296.8188,231,12.4,9,13
"91",9,5,1,2,12428.9,110,169,296.8188,231,305.9,10,12
"92",9,5,1,1,12428.9,110,169,296.8188,231,194.2,11,11
"93",9,5,1,2,12428.9,110,169,296.8188,231,1031.9,12,10
"94",9,5,1,4,12428.9,110,169,296.8188,231,2059,13,9
"95",9,5,1,3,12428.9,110,169,296.8188,231,1985.9,14,8
"96",9,5,1,1,12428.9,110,169,296.8188,231,1349.8,15,7
"97",9,5,1,3,12428.9,110,169,296.8188,231,95.9000000000003,16,6
"98",9,5,1,2,12428.9,110,169,296.8188,231,303.699999999999,17,5
"99",9,5,1,4,12428.9,110,169,296.8188,231,818,18,4
"100",9,5,1,2,12428.9,110,169,296.8188,231,382.7,19,3
"101",9,5,1,4,12428.9,110,169,296.8188,231,598.2,20,2
"102",9,5,1,3,12428.9,110,169,296.8188,231,96.4000000000009,21,1
"103",9,6,0,1,9610.5,248,196,165.38,212,13.64,1,21
"104",9,6,0,2,9610.5,248,196,165.38,212,177.82,2,20
"105",9,6,0,3,9610.5,248,196,165.38,212,169.8,3,19
"106",9,6,0,4,9610.5,248,196,165.38,212,265.8,4,18
"107",9,6,0,2,9610.5,248,196,165.38,212,261.3,5,17
"108",9,6,0,1,9610.5,248,196,165.38,212,261.4,6,16
"109",9,6,0,3,9610.5,248,196,165.38,212,555.9,7,15
"110",9,6,0,4,9610.5,248,196,165.38,212,408.1,8,14
"111",9,6,0,2,9610.5,248,196,165.38,212,522.2,9,13
"112",9,6,0,3,9610.5,248,196,165.38,212,11.2000000000001,10,12
"113",9,6,0,2,9610.5,248,196,165.38,212,701.3,11,11
"114",9,6,0,1,9610.5,248,196,165.38,212,444,12,10
"115",9,6,0,2,9610.5,248,196,165.38,212,148.099999999999,13,9
"116",9,6,0,4,9610.5,248,196,165.38,212,1202.2,14,8
"117",9,6,0,2,9610.5,248,196,165.38,212,1262.1,15,7
"118",9,6,0,4,9610.5,248,196,165.38,212,294,16,6
"119",9,6,0,1,9610.5,248,196,165.38,212,632,17,5
"120",9,6,0,3,9610.5,248,196,165.38,212,305.999999999999,18,4
"121",9,6,0,4,9610.5,248,196,165.38,212,1.9000000000009,19,3
"122",9,6,0,3,9610.5,248,196,165.38,212,9.90000000000002,20,2
"123",9,6,0,2,9610.5,248,196,165.38,212,178.000000000001,21,1
"124",9,7,1,4,22335.8,131,233,293,171.7137,217.839,1,29
"125",9,7,1,3,22335.8,131,233,293,171.7137,7.96000000000002,2,28
"126",9,7,1,1,22335.8,131,233,293,171.7137,214.2,3,27
"127",9,7,1,3,22335.8,131,233,293,171.7137,344.03,4,26
"128",9,7,1,1,22335.8,131,233,293,171.7137,246,5,25
"129",9,7,1,2,22335.8,131,233,293,171.7137,269.9,6,24
"130",9,7,1,4,22335.8,131,233,293,171.7137,797.9,7,23
"131",9,7,1,2,22335.8,131,233,293,171.7137,299.9,8,22
"132",9,7,1,4,22335.8,131,233,293,171.7137,1738.4,9,21
"133",9,7,1,2,22335.8,131,233,293,171.7137,936.100000000001,10,20
"134",9,7,1,4,22335.8,131,233,293,171.7137,1.90000000000001,11,19
"135",9,7,1,2,22335.8,131,233,293,171.7137,1149.9,12,18
"136",9,7,1,4,22335.8,131,233,293,171.7137,1.90000000000001,13,17
"137",9,7,1,2,22335.8,131,233,293,171.7137,164.5,14,16
"138",9,7,1,1,22335.8,131,233,293,171.7137,1268.1,15,15
"139",9,7,1,3,22335.8,131,233,293,171.7137,824.1,16,14
"140",9,7,1,4,22335.8,131,233,293,171.7137,1206.7,17,13
"141",9,7,1,1,22335.8,131,233,293,171.7137,2.60000000000105,18,12
"142",9,7,1,2,22335.8,131,233,293,171.7137,2056.2,19,11
"143",9,7,1,1,22335.8,131,233,293,171.7137,214,20,10
"144",9,7,1,2,22335.8,131,233,293,171.7137,2955.9,21,9
"145",9,7,1,3,22335.8,131,233,293,171.7137,574.099999999998,22,8
"146",9,7,1,4,22335.8,131,233,293,171.7137,3.90000000000157,23,7
"147",9,7,1,1,22335.8,131,233,293,171.7137,802.099999999999,24,6
"148",9,7,1,3,22335.8,131,233,293,171.7137,706.199999999999,25,5
"149",9,7,1,1,22335.8,131,233,293,171.7137,612.099999999998,26,4
"150",9,7,1,4,22335.8,131,233,293,171.7137,1052.2,27,3
"151",9,7,1,2,22335.8,131,233,293,171.7137,8.10000000000244,28,2
"152",9,7,1,3,22335.8,131,233,293,171.7137,339.9,29,1
"153",9,8,0,4,2374.9,117,77,174.1721,219,123.92,1,9
"154",9,8,0,2,2374.9,117,77,174.1721,219,151.81,2,8
"155",9,8,0,1,2374.9,117,77,174.1721,219,168.65,3,7
"156",9,8,0,3,2374.9,117,77,174.1721,219,286.08,4,6
"157",9,8,0,1,2374.9,117,77,174.1721,219,168.7,5,5
"158",9,8,0,2,2374.9,117,77,174.1721,219,306.4,6,4
"159",9,8,0,4,2374.9,117,77,174.1721,219,141.9,7,3
"160",9,8,0,1,2374.9,117,77,174.1721,219,291.4,8,2
"161",9,8,0,3,2374.9,117,77,174.1721,219,95.8999999999999,9,1
"162",9,9,1,1,1432.9,171,136,227,266.422,136.77,1,5
"163",9,9,1,3,1432.9,171,136,227,266.422,266.07,2,4
"164",9,9,1,1,1432.9,171,136,227,266.422,226.79,3,3
"165",9,9,1,2,1432.9,171,136,227,266.422,195.92,4,2
"166",9,9,1,4,1432.9,171,136,227,266.422,234.6,5,1
"167",9,10,0,2,4138.3,214,92,142.6763,289,198.83,1,12
"168",9,10,0,1,4138.3,214,92,142.6763,289,211.25,2,11
"169",9,10,0,3,4138.3,214,92,142.6763,289,526.78,3,10
"170",9,10,0,1,4138.3,214,92,142.6763,289,276.9,4,9
"171",9,10,0,2,4138.3,214,92,142.6763,289,317.9,5,8
"172",9,10,0,4,4138.3,214,92,142.6763,289,292.2,6,7
"173",9,10,0,2,4138.3,214,92,142.6763,289,305.6,7,6
"174",9,10,0,3,4138.3,214,92,142.6763,289,4,8,5
"175",9,10,0,2,4138.3,214,92,142.6763,289,166,9,4
"176",9,10,0,1,4138.3,214,92,142.6763,289,180.1,10,3
"177",9,10,0,3,4138.3,214,92,142.6763,289,866.1,11,2
"178",9,10,0,2,4138.3,214,92,142.6763,289,218.5,12,1
"179",9,11,1,3,12067,182,230,152.6308,116,18.06,1,25
"180",9,11,1,1,12067,182,230,152.6308,116,194.04,2,24
"181",9,11,1,2,12067,182,230,152.6308,116,127.91,3,23
"182",9,11,1,4,12067,182,230,152.6308,116,248.03,4,22
"183",9,11,1,2,12067,182,230,152.6308,116,225.8,5,21
"184",9,11,1,3,12067,182,230,152.6308,116,15.9,6,20
"185",9,11,1,1,12067,182,230,152.6308,116,212.1,7,19
"186",9,11,1,3,12067,182,230,152.6308,116,285.9,8,18
"187",9,11,1,1,12067,182,230,152.6308,116,1212.2,9,17
"188",9,11,1,3,12067,182,230,152.6308,116,218.1,10,16
"189",9,11,1,1,12067,182,230,152.6308,116,482.3,11,15
"190",9,11,1,2,12067,182,230,152.6308,116,364.100000000001,12,14
"191",9,11,1,4,12067,182,230,152.6308,116,2972,13,13
"192",9,11,1,2,12067,182,230,152.6308,116,274.900000000001,14,12
"193",9,11,1,4,12067,182,230,152.6308,116,267.199999999999,15,11
"194",9,11,1,2,12067,182,230,152.6308,116,690.000000000001,16,10
"195",9,11,1,1,12067,182,230,152.6308,116,278,17,9
"196",9,11,1,3,12067,182,230,152.6308,116,234.1,18,8
"197",9,11,1,4,12067,182,230,152.6308,116,1.9000000000009,19,7
"198",9,11,1,3,12067,182,230,152.6308,116,2.00000000000067,20,6
"199",9,11,1,2,12067,182,230,152.6308,116,720.9,21,5
"200",9,11,1,4,12067,182,230,152.6308,116,566.1,22,4
"201",9,11,1,1,12067,182,230,152.6308,116,146.000000000001,23,3
"202",9,11,1,3,12067,182,230,152.6308,116,295.199999999999,24,2
"203",9,11,1,1,12067,182,230,152.6308,116,102.600000000001,25,1
"204",9,12,0,1,11325.7,200.8649,166,234,281,144.99,1,20
"205",9,12,0,2,11325.7,200.8649,166,234,281,405.29,2,19
"206",9,12,0,4,11325.7,200.8649,166,234,281,52.91,3,18
"207",9,12,0,3,11325.7,200.8649,166,234,281,3.05,4,17
"208",9,12,0,2,11325.7,200.8649,166,234,281,254.09,5,16
"209",9,12,0,4,11325.7,200.8649,166,234,281,364.2,6,15
"210",9,12,0,3,11325.7,200.8649,166,234,281,420.1,7,14
"211",9,12,0,1,11325.7,200.8649,166,234,281,700.2,8,13
"212",9,12,0,3,11325.7,200.8649,166,234,281,446,9,12
"213",9,12,0,1,11325.7,200.8649,166,234,281,626.2,10,11
"214",9,12,0,3,11325.7,200.8649,166,234,281,86.2000000000007,11,10
"215",9,12,0,1,11325.7,200.8649,166,234,281,221.8,12,9
"216",9,12,0,2,11325.7,200.8649,166,234,281,672,13,8
"217",9,12,0,4,11325.7,200.8649,166,234,281,1849.6,14,7
"218",9,12,0,3,11325.7,200.8649,166,234,281,395.900000000001,15,6
"219",9,12,0,4,11325.7,200.8649,166,234,281,5.90000000000046,16,5
"220",9,12,0,2,11325.7,200.8649,166,234,281,2212.1,17,4
"221",9,12,0,3,11325.7,200.8649,166,234,281,37.8000000000007,18,3
"222",9,12,0,4,11325.7,200.8649,166,234,281,1.9000000000009,19,2
"223",9,12,0,1,11325.7,200.8649,166,234,281,110.5,20,1
"224",9,13,1,3,2402,265,147,35,70.1675,5.81999999999994,1,6
"225",9,13,1,1,2402,265,147,35,70.1675,402.14,2,5
"226",9,13,1,3,2402,265,147,35,70.1675,266.16,3,4
"227",9,13,1,2,2402,265,147,35,70.1675,260,4,3
"228",9,13,1,4,2402,265,147,35,70.1675,448,5,2
"229",9,13,1,2,2402,265,147,35,70.1675,234.4,6,1
"230",9,14,0,4,2587.9,189,245,136,90.0296,153.96,1,8
"231",9,14,0,2,2587.9,189,245,136,90.0296,187.96,2,7
"232",9,14,0,1,2587.9,189,245,136,90.0296,193.98,3,6
"233",9,14,0,3,2587.9,189,245,136,90.0296,336.05,4,5
"234",9,14,0,1,2587.9,189,245,136,90.0296,440,5,4
"235",9,14,0,3,2587.9,189,245,136,90.0296,224,6,3
"236",9,14,0,4,2587.9,189,245,136,90.0296,211.9,7,2
"237",9,14,0,2,2587.9,189,245,136,90.0296,194.2,8,1
"238",9,15,0,2,1914.7,123,183.3187,108,72,198.03,1,6
"239",9,15,0,1,1914.7,123,183.3187,108,72,190.06,2,5
"240",9,15,0,3,1914.7,123,183.3187,108,72,292.09,3,4
"241",9,15,0,1,1914.7,123,183.3187,108,72,404,4,3
"242",9,15,0,2,1914.7,123,183.3187,108,72,185.9,5,2
"243",9,15,0,4,1914.7,123,183.3187,108,72,221.9,6,1
"244",9,16,1,1,4621.4,271,200,155,217.342,271.74,1,13
"245",9,16,1,3,4621.4,271,200,155,217.342,284.14,2,12
"246",9,16,1,4,4621.4,271,200,155,217.342,206.16,3,11
"247",9,16,1,2,4621.4,271,200,155,217.342,430.9,4,10
"248",9,16,1,1,4621.4,271,200,155,217.342,158,5,9
"249",9,16,1,3,4621.4,271,200,155,217.342,320.7,6,8
"250",9,16,1,4,4621.4,271,200,155,217.342,292.1,7,7
"251",9,16,1,2,4621.4,271,200,155,217.342,632,8,6
"252",9,16,1,3,4621.4,271,200,155,217.342,285.8,9,5
"253",9,16,1,4,4621.4,271,200,155,217.342,215.9,10,4
"254",9,16,1,1,4621.4,271,200,155,217.342,362.1,11,3
"255",9,16,1,4,4621.4,271,200,155,217.342,420.8,12,2
"256",9,16,1,2,4621.4,271,200,155,217.342,28.2,13,1
"257",9,17,0,1,2888.7,135,193,103,39.804,179.89,1,9
"258",9,17,0,2,2888.7,135,193,103,39.804,149.98,2,8
"259",9,17,0,4,2888.7,135,193,103,39.804,313.96,3,7
"260",9,17,0,3,2888.7,135,193,103,39.804,263.8,4,6
"261",9,17,0,1,2888.7,135,193,103,39.804,368,5,5
"262",9,17,0,3,2888.7,135,193,103,39.804,2.09999999999999,6,4
"263",9,17,0,2,2888.7,135,193,103,39.804,226.1,7,3
"264",9,17,0,4,2888.7,135,193,103,39.804,206.1,8,2
"265",9,17,0,2,2888.7,135,193,103,39.804,218.1,9,1
"266",9,18,1,1,6954.2,284,83,43.5115,175,218.03,1,18
"267",9,18,1,3,6954.2,284,83,43.5115,175,251.92,2,17
"268",9,18,1,1,6954.2,284,83,43.5115,175,153.87,3,16
"269",9,18,1,2,6954.2,284,83,43.5115,175,225.81,4,15
"270",9,18,1,4,6954.2,284,83,43.5115,175,262.2,5,14
"271",9,18,1,3,6954.2,284,83,43.5115,175,16,6,13
"272",9,18,1,4,6954.2,284,83,43.5115,175,3.80000000000003,7,12
"273",9,18,1,2,6954.2,284,83,43.5115,175,596.1,8,11
"274",9,18,1,1,6954.2,284,83,43.5115,175,182.3,9,10
"275",9,18,1,3,6954.2,284,83,43.5115,175,273.7,10,9
"276",9,18,1,4,6954.2,284,83,43.5115,175,2.09999999999999,11,8
"277",9,18,1,1,6954.2,284,83,43.5115,175,30.5,12,7
"278",9,18,1,2,6954.2,284,83,43.5115,175,385.3,13,6
"279",9,18,1,1,6954.2,284,83,43.5115,175,305.9,14,5
"280",9,18,1,4,6954.2,284,83,43.5115,175,231.9,15,4
"281",9,18,1,2,6954.2,284,83,43.5115,175,456,16,3
"282",9,18,1,3,6954.2,284,83,43.5115,175,265.8,17,2
"283",9,18,1,1,6954.2,284,83,43.5115,175,18.3,18,1
"284",9,19,0,1,2674.3,130,205,112.2706,71,51.71,1,8
"285",9,19,0,3,2674.3,130,205,112.2706,71,262.06,2,7
"286",9,19,0,1,2674.3,130,205,112.2706,71,109.12,3,6
"287",9,19,0,2,2674.3,130,205,112.2706,71,224,4,5
"288",9,19,0,4,2674.3,130,205,112.2706,71,343.3,5,4
"289",9,19,0,2,2674.3,130,205,112.2706,71,270.1,6,3
"290",9,19,0,4,2674.3,130,205,112.2706,71,246,7,2
"291",9,19,0,3,2674.3,130,205,112.2706,71,108.3,8,1
"292",9,20,0,3,7988.2,93,190,283.1057,178,265.85,1,21
"293",9,20,0,1,7988.2,93,190,283.1057,178,5.97999999999999,2,20
"294",9,20,0,2,7988.2,93,190,283.1057,178,198.06,3,19
"295",9,20,0,4,7988.2,93,190,283.1057,178,386,4,18
"296",9,20,0,2,7988.2,93,190,283.1057,178,150.1,5,17
"297",9,20,0,3,7988.2,93,190,283.1057,178,4,6,16
"298",9,20,0,4,7988.2,93,190,283.1057,178,11.9,7,15
"299",9,20,0,2,7988.2,93,190,283.1057,178,186.1,8,14
"300",9,20,0,4,7988.2,93,190,283.1057,178,345.9,9,13
"301",9,20,0,2,7988.2,93,190,283.1057,178,408.2,10,12
"302",9,20,0,1,7988.2,93,190,283.1057,178,279.9,11,11
"303",9,20,0,3,7988.2,93,190,283.1057,178,460.1,12,10
"304",9,20,0,1,7988.2,93,190,283.1057,178,896.3,13,9
"305",9,20,0,2,7988.2,93,190,283.1057,178,539.899999999999,14,8
"306",9,20,0,4,7988.2,93,190,283.1057,178,1.90000000000001,15,7
"307",9,20,0,3,7988.2,93,190,283.1057,178,4.00000000000045,16,6
"308",9,20,0,4,7988.2,93,190,283.1057,178,10.0999999999996,17,5
"309",9,20,0,2,7988.2,93,190,283.1057,178,161.7,18,4
"310",9,20,0,3,7988.2,93,190,283.1057,178,325.9,19,3
"311",9,20,0,1,7988.2,93,190,283.1057,178,1298.1,20,2
"312",9,20,0,3,7988.2,93,190,283.1057,178,624.1,21,1
"313",9,21,1,1,2163,123,77,35,73.3212,211.84,1,7
"314",9,21,1,3,2163,123,77,35,73.3212,265.56,2,6
"315",9,21,1,1,2163,123,77,35,73.3212,249.57,3,5
"316",9,21,1,2,2163,123,77,35,73.3212,197.96,4,4
"317",9,21,1,4,2163,123,77,35,73.3212,297.9,5,3
"318",9,21,1,1,2163,123,77,35,73.3212,284,6,2
"319",9,21,1,2,2163,123,77,35,73.3212,150.2,7,1
"320",9,22,1,3,17466.4,156,75,170,255.7032,1.80000000000002,1,31
"321",9,22,1,4,17466.4,156,75,170,255.7032,3.89999999999979,2,30
"322",9,22,1,1,17466.4,156,75,170,255.7032,632.9,3,29
"323",9,22,1,3,17466.4,156,75,170,255.7032,655.1,4,28
"324",9,22,1,4,17466.4,156,75,170,255.7032,423.2,5,27
"325",9,22,1,2,17466.4,156,75,170,255.7032,255.1,6,26
"326",9,22,1,4,17466.4,156,75,170,255.7032,186.100000000001,7,25
"327",9,22,1,3,17466.4,156,75,170,255.7032,1562.2,8,24
"328",9,22,1,4,17466.4,156,75,170,255.7032,138.8,9,23
"329",9,22,1,2,17466.4,156,75,170,255.7032,396.1,10,22
"330",9,22,1,4,17466.4,156,75,170,255.7032,550.6,11,21
"331",9,22,1,3,17466.4,156,75,170,255.7032,14.0000000000002,12,20
"332",9,22,1,1,17466.4,156,75,170,255.7032,480.4,13,19
"333",9,22,1,3,17466.4,156,75,170,255.7032,1054.1,14,18
"334",9,22,1,4,17466.4,156,75,170,255.7032,593.7,15,17
"335",9,22,1,2,17466.4,156,75,170,255.7032,128,16,16
"336",9,22,1,1,17466.4,156,75,170,255.7032,335.699999999999,17,15
"337",9,22,1,3,17466.4,156,75,170,255.7032,1.99999999999889,18,14
"338",9,22,1,4,17466.4,156,75,170,255.7032,224,19,13
"339",9,22,1,3,17466.4,156,75,170,255.7032,346.1,20,12
"340",9,22,1,4,17466.4,156,75,170,255.7032,421.6,21,11
"341",9,22,1,2,17466.4,156,75,170,255.7032,250,22,10
"342",9,22,1,1,17466.4,156,75,170,255.7032,192.1,23,9
"343",9,22,1,4,17466.4,156,75,170,255.7032,529.999999999999,24,8
"344",9,22,1,2,17466.4,156,75,170,255.7032,502.1,25,7
"345",9,22,1,3,17466.4,156,75,170,255.7032,80.0999999999998,26,6
"346",9,22,1,4,17466.4,156,75,170,255.7032,5.39999999999985,27,5
"347",9,22,1,2,17466.4,156,75,170,255.7032,996.099999999998,28,4
"348",9,22,1,3,17466.4,156,75,170,255.7032,8.60000000000127,29,3
"349",9,22,1,1,17466.4,156,75,170,255.7032,888.000000000002,30,2
"350",9,22,1,3,17466.4,156,75,170,255.7032,216.100000000001,31,1
"351",9,23,0,1,9225.9,256,149,48,142.2412,334.64,1,21
"352",9,23,0,3,9225.9,256,149,48,142.2412,15.9499999999999,2,20
"353",9,23,0,1,9225.9,256,149,48,142.2412,112,3,19
"354",9,23,0,2,9225.9,256,149,48,142.2412,188.79,4,18
"355",9,23,0,4,9225.9,256,149,48,142.2412,168.3,5,17
"356",9,23,0,3,9225.9,256,149,48,142.2412,284,6,16
"357",9,23,0,1,9225.9,256,149,48,142.2412,950.1,7,15
"358",9,23,0,4,9225.9,256,149,48,142.2412,271.8,8,14
"359",9,23,0,3,9225.9,256,149,48,142.2412,205.9,9,13
"360",9,23,0,1,9225.9,256,149,48,142.2412,441.8,10,12
"361",9,23,0,2,9225.9,256,149,48,142.2412,194.1,11,11
"362",9,23,0,4,9225.9,256,149,48,142.2412,314.6,12,10
"363",9,23,0,1,9225.9,256,149,48,142.2412,375.900000000001,13,9
"364",9,23,0,3,9225.9,256,149,48,142.2412,505.000000000001,14,8
"365",9,23,0,4,9225.9,256,149,48,142.2412,1.90000000000001,15,7
"366",9,23,0,2,9225.9,256,149,48,142.2412,690.2,16,6
"367",9,23,0,4,9225.9,256,149,48,142.2412,264,17,5
"368",9,23,0,1,9225.9,256,149,48,142.2412,180,18,4
"369",9,23,0,3,9225.9,256,149,48,142.2412,1373.4,19,3
"370",9,23,0,4,9225.9,256,149,48,142.2412,375.9,20,2
"371",9,23,0,1,9225.9,256,149,48,142.2412,206,21,1
"372",9,24,1,1,3035.5,35,73.0301,266,201,289.54,1,7
"373",9,24,1,3,3035.5,35,73.0301,266,201,502.53,2,6
"374",9,24,1,2,3035.5,35,73.0301,266,201,184,3,5
"375",9,24,1,4,3035.5,35,73.0301,266,201,610.1,4,4
"376",9,24,1,3,3035.5,35,73.0301,266,201,161.6,5,3
"377",9,24,1,2,3035.5,35,73.0301,266,201,555.9,6,2
"378",9,24,1,1,3035.5,35,73.0301,266,201,180,7,1
"379",9,25,1,1,2032.4,268,151,86,134.4648,158,1,7
"380",9,25,1,3,2032.4,268,151,86,134.4648,288.17,2,6
"381",9,25,1,1,2032.4,268,151,86,134.4648,140.78,3,5
"382",9,25,1,2,2032.4,268,151,86,134.4648,236.15,4,4
"383",9,25,1,4,2032.4,268,151,86,134.4648,532,5,3
"384",9,25,1,2,2032.4,268,151,86,134.4648,133.3,6,2
"385",9,25,1,1,2032.4,268,151,86,134.4648,82.2,7,1
"386",9,26,0,1,2732.9,139,39,115.7281,260,126.84,1,6
"387",9,26,0,3,2732.9,139,39,115.7281,260,234.69,2,5
"388",9,26,0,4,2732.9,139,39,115.7281,260,185.82,3,4
"389",9,26,0,1,2732.9,139,39,115.7281,260,210,4,3
"390",9,26,0,3,2732.9,139,39,115.7281,260,426.1,5,2
"391",9,26,0,2,2732.9,139,39,115.7281,260,337.9,6,1
"392",9,27,1,3,3146.3,132,180,259.7662,202,221.9,1,8
"393",9,27,1,1,3146.3,132,180,259.7662,202,279.99,2,7
"394",9,27,1,2,3146.3,132,180,259.7662,202,336.14,3,6
"395",9,27,1,4,3146.3,132,180,259.7662,202,266,4,5
"396",9,27,1,1,3146.3,132,180,259.7662,202,534.1,5,4
"397",9,27,1,2,3146.3,132,180,259.7662,202,296,6,3
"398",9,27,1,3,3146.3,132,180,259.7662,202,376.1,7,2
"399",9,27,1,4,3146.3,132,180,259.7662,202,362,8,1
"400",9,28,1,3,2271.7,278,181,41,73.5685,199.86,1,4
"401",9,28,1,1,2271.7,278,181,41,73.5685,541.86,2,3
"402",9,28,1,2,2271.7,278,181,41,73.5685,200.1,3,2
"403",9,28,1,4,2271.7,278,181,41,73.5685,798.1,4,1
"404",9,29,1,3,4466.3,264,140.3555,72,136,215.82,1,10
"405",9,29,1,1,4466.3,264,140.3555,72,136,535.96,2,9
"406",9,29,1,3,4466.3,264,140.3555,72,136,221.9,3,8
"407",9,29,1,2,4466.3,264,140.3555,72,136,286,4,7
"408",9,29,1,4,4466.3,264,140.3555,72,136,620.6,5,6
"409",9,29,1,3,4466.3,264,140.3555,72,136,94.0999999999996,6,5
"410",9,29,1,2,4466.3,264,140.3555,72,136,346.9,7,4
"411",9,29,1,4,4466.3,264,140.3555,72,136,576.2,8,3
"412",9,29,1,3,4466.3,264,140.3555,72,136,287.9,9,2
"413",9,29,1,1,4466.3,264,140.3555,72,136,216.8,10,1
"414",9,30,1,1,1303.4,141.9429,107,218,251,215.97,1,5
"415",9,30,1,3,1303.4,141.9429,107,218,251,200.91,2,4
"416",9,30,1,1,1303.4,141.9429,107,218,251,215.95,3,3
"417",9,30,1,2,1303.4,141.9429,107,218,251,198.18,4,2
"418",9,30,1,4,1303.4,141.9429,107,218,251,182.2,5,1
"419",9,31,1,2,2344.4,32,64.6739,228,147,289.85,1,5
"420",9,31,1,1,2344.4,32,64.6739,228,147,184.04,2,4
"421",9,31,1,3,2344.4,32,64.6739,228,147,287.9,3,3
"422",9,31,1,2,2344.4,32,64.6739,228,147,229.9,4,2
"423",9,31,1,4,2344.4,32,64.6739,228,147,597.5,5,1
"424",9,32,1,3,5249.1,299,226,151.3367,212,263.99,1,12
"425",9,32,1,1,5249.1,299,226,151.3367,212,233.88,2,11
"426",9,32,1,2,5249.1,299,226,151.3367,212,303.9,3,10
"427",9,32,1,3,5249.1,299,226,151.3367,212,245.8,4,9
"428",9,32,1,4,5249.1,299,226,151.3367,212,496.3,5,8
"429",9,32,1,2,5249.1,299,226,151.3367,212,310.7,6,7
"430",9,32,1,1,5249.1,299,226,151.3367,212,444.2,7,6
"431",9,32,1,4,5249.1,299,226,151.3367,212,706.8,8,5
"432",9,32,1,2,5249.1,299,226,151.3367,212,183.9,9,4
"433",9,32,1,3,5249.1,299,226,151.3367,212,256,10,3
"434",9,32,1,4,5249.1,299,226,151.3367,212,1.80000000000025,11,2
"435",9,32,1,2,5249.1,299,226,151.3367,212,165.100000000001,12,1
"436",9,33,1,1,4727.3,162,125,82,117.2733,213.91,1,15
"437",9,33,1,3,4727.3,162,125,82,117.2733,92.02,2,14
"438",9,33,1,1,4727.3,162,125,82,117.2733,323.97,3,13
"439",9,33,1,3,4727.3,162,125,82,117.2733,117.9,4,12
"440",9,33,1,1,4727.3,162,125,82,117.2733,66.1000000000001,5,11
"441",9,33,1,2,4727.3,162,125,82,117.2733,302,6,10
"442",9,33,1,3,4727.3,162,125,82,117.2733,218,7,9
"443",9,33,1,1,4727.3,162,125,82,117.2733,163.9,8,8
"444",9,33,1,4,4727.3,162,125,82,117.2733,516,9,7
"445",9,33,1,3,4727.3,162,125,82,117.2733,228,10,6
"446",9,33,1,2,4727.3,162,125,82,117.2733,438,11,5
"447",9,33,1,4,4727.3,162,125,82,117.2733,474.4,12,4
"448",9,33,1,2,4727.3,162,125,82,117.2733,308.1,13,3
"449",9,33,1,1,4727.3,162,125,82,117.2733,204,14,2
"450",9,33,1,3,4727.3,162,125,82,117.2733,195.799999999999,15,1
"451",9,34,0,3,7648,32.1509,123,259,124,410.45,1,9
"452",9,34,0,2,7648,32.1509,123,259,124,177.9,2,8
"453",9,34,0,4,7648,32.1509,123,259,124,558.2,3,7
"454",9,34,0,3,7648,32.1509,123,259,124,1206.2,4,6
"455",9,34,0,4,7648,32.1509,123,259,124,11.9999999999996,5,5
"456",9,34,0,2,7648,32.1509,123,259,124,1450.1,6,4
"457",9,34,0,3,7648,32.1509,123,259,124,1975.5,7,3
"458",9,34,0,4,7648,32.1509,123,259,124,7.90000000000024,8,2
"459",9,34,0,1,7648,32.1509,123,259,124,464.1,9,1
"460",9,35,0,1,17832,296,154,64.0059,169,116.67,1,26
"461",9,35,0,3,17832,296,154,64.0059,169,391.93,2,25
"462",9,35,0,4,17832,296,154,64.0059,169,211.99,3,24
"463",9,35,0,2,17832,296,154,64.0059,169,304,4,23
"464",9,35,0,4,17832,296,154,64.0059,169,1.90000000000001,5,22
"465",9,35,0,3,17832,296,154,64.0059,169,8.00000000000001,6,21
"466",9,35,0,4,17832,296,154,64.0059,169,6.00000000000001,7,20
"467",9,35,0,2,17832,296,154,64.0059,169,524,8,19
"468",9,35,0,4,17832,296,154,64.0059,169,242.1,9,18
"469",9,35,0,1,17832,296,154,64.0059,169,1707.9,10,17
"470",9,35,0,3,17832,296,154,64.0059,169,74.3,11,16
"471",9,35,0,1,17832,296,154,64.0059,169,2370.3,12,15
"472",9,35,0,3,17832,296,154,64.0059,169,90.1000000000005,13,14
"473",9,35,0,1,17832,296,154,64.0059,169,20.0000000000005,14,13
"474",9,35,0,3,17832,296,154,64.0059,169,119.9,15,12
"475",9,35,0,1,17832,296,154,64.0059,169,616.000000000001,16,11
"476",9,35,0,3,17832,296,154,64.0059,169,2420.1,17,10
"477",9,35,0,4,17832,296,154,64.0059,169,635.6,18,9
"478",9,35,0,3,17832,296,154,64.0059,169,11.5999999999996,19,8
"479",9,35,0,4,17832,296,154,64.0059,169,2.09999999999866,20,7
"480",9,35,0,2,17832,296,154,64.0059,169,1163.4,21,6
"481",9,35,0,4,17832,296,154,64.0059,169,2066.6,22,5
"482",9,35,0,3,17832,296,154,64.0059,169,386.000000000003,23,4
"483",9,35,0,2,17832,296,154,64.0059,169,278.300000000002,24,3
"484",9,35,0,1,17832,296,154,64.0059,169,486.2,25,2
"485",9,35,0,2,17832,296,154,64.0059,169,183.800000000002,26,1
"486",9,36,1,3,2413.4,36,113,283,132.0805,261.74,1,6
"487",9,36,1,2,2413.4,36,113,283,132.0805,198.07,2,5
"488",9,36,1,4,2413.4,36,113,283,132.0805,520,3,4
"489",9,36,1,2,2413.4,36,113,283,132.0805,242,4,3
"490",9,36,1,1,2413.4,36,113,283,132.0805,310,5,2
"491",9,36,1,3,2413.4,36,113,283,132.0805,48.9000000000002,6,1
"492",9,37,1,1,1751.6,257,150,40,71.5927,437.8,1,5
"493",9,37,1,2,1751.6,257,150,40,71.5927,216.05,2,4
"494",9,37,1,3,1751.6,257,150,40,71.5927,346.06,3,3
"495",9,37,1,4,1751.6,257,150,40,71.5927,260,4,2
"496",9,37,1,2,1751.6,257,150,40,71.5927,161.4,5,1
"497",9,38,0,1,1471.7,210,277.1856,124,87,179.89,1,6
"498",9,38,0,2,1471.7,210,277.1856,124,87,162.35,2,5
"499",9,38,0,4,1471.7,210,277.1856,124,87,235.53,3,4
"500",9,38,0,3,1471.7,210,277.1856,124,87,148.09,4,3
"501",9,38,0,1,1471.7,210,277.1856,124,87,303.9,5,2
"502",9,38,0,3,1471.7,210,277.1856,124,87,105.6,6,1
"503",9,39,1,1,1912.6,72,113.8685,268,182,306.37,1,6
"504",9,39,1,3,1912.6,72,113.8685,268,182,214.19,2,5
"505",9,39,1,1,1912.6,72,113.8685,268,182,139.46,3,4
"506",9,39,1,2,1912.6,72,113.8685,268,182,198.68,4,3
"507",9,39,1,4,1912.6,72,113.8685,268,182,569.5,5,2
"508",9,39,1,3,1912.6,72,113.8685,268,182,127.8,6,1
"509",9,40,1,4,4322.4,90,204,261.3522,128,125.372,1,13
"510",9,40,1,2,4322.4,90,204,261.3522,128,175.51,2,12
"511",9,40,1,3,4322.4,90,204,261.3522,128,2.02999999999998,3,11
"512",9,40,1,1,4322.4,90,204,261.3522,128,285.94,4,10
"513",9,40,1,3,4322.4,90,204,261.3522,128,300,5,9
"514",9,40,1,4,4322.4,90,204,261.3522,128,306.1,6,8
"515",9,40,1,2,4322.4,90,204,261.3522,128,331.9,7,7
"516",9,40,1,4,4322.4,90,204,261.3522,128,342,8,6
"517",9,40,1,3,4322.4,90,204,261.3522,128,3.09999999999988,9,5
"518",9,40,1,1,4322.4,90,204,261.3522,128,308,10,4
"519",9,40,1,2,4322.4,90,204,261.3522,128,400.1,11,3
"520",9,40,1,1,4322.4,90,204,261.3522,128,535.2,12,2
"521",9,40,1,4,4322.4,90,204,261.3522,128,371.5,13,1
"522",9,41,1,3,1833.4,123,186,258.0234,178,158.51,1,4
"523",9,41,1,1,1833.4,123,186,258.0234,178,194.34,2,3
"524",9,41,1,2,1833.4,123,186,258.0234,178,190.13,3,2
"525",9,41,1,4,1833.4,123,186,258.0234,178,566.1,4,1
"526",9,42,1,3,5676.1,107,162,121,76.7358,368.04,1,17
"527",9,42,1,1,5676.1,107,162,121,76.7358,6.00000000000001,2,16
"528",9,42,1,2,5676.1,107,162,121,76.7358,156.4,3,15
"529",9,42,1,4,5676.1,107,162,121,76.7358,320.2,4,14
"530",9,42,1,2,5676.1,107,162,121,76.7358,220.6,5,13
"531",9,42,1,4,5676.1,107,162,121,76.7358,200,6,12
"532",9,42,1,1,5676.1,107,162,121,76.7358,133.9,7,11
"533",9,42,1,3,5676.1,107,162,121,76.7358,118,8,10
"534",9,42,1,1,5676.1,107,162,121,76.7358,191.8,9,9
"535",9,42,1,2,5676.1,107,162,121,76.7358,264.2,10,8
"536",9,42,1,4,5676.1,107,162,121,76.7358,366.1,11,7
"537",9,42,1,3,5676.1,107,162,121,76.7358,194,12,6
"538",9,42,1,2,5676.1,107,162,121,76.7358,409.3,13,5
"539",9,42,1,3,5676.1,107,162,121,76.7358,8.39999999999996,14,4
"540",9,42,1,4,5676.1,107,162,121,76.7358,5.49999999999962,15,3
"541",9,42,1,2,5676.1,107,162,121,76.7358,628,16,2
"542",9,42,1,1,5676.1,107,162,121,76.7358,472,17,1
"543",9,43,0,3,14976,183,124,172.5334,240,3.09999999999988,1,36
"544",9,43,0,2,14976,183,124,172.5334,240,310,2,35
"545",9,43,0,4,14976,183,124,172.5334,240,422,3,34
"546",9,43,0,1,14976,183,124,172.5334,240,341.9,4,33
"547",9,43,0,3,14976,183,124,172.5334,240,326,5,32
"548",9,43,0,1,14976,183,124,172.5334,240,254,6,31
"549",9,43,0,2,14976,183,124,172.5334,240,250.5,7,30
"550",9,43,0,4,14976,183,124,172.5334,240,255.9,8,29
"551",9,43,0,3,14976,183,124,172.5334,240,5.79999999999981,9,28
"552",9,43,0,2,14976,183,124,172.5334,240,536,10,27
"553",9,43,0,4,14976,183,124,172.5334,240,2.2000000000002,11,26
"554",9,43,0,3,14976,183,124,172.5334,240,6.00000000000023,12,25
"555",9,43,0,4,14976,183,124,172.5334,240,1.59999999999982,13,24
"556",9,43,0,2,14976,183,124,172.5334,240,770.1,14,23
"557",9,43,0,4,14976,183,124,172.5334,240,56,15,22
"558",9,43,0,2,14976,183,124,172.5334,240,184,16,21
"559",9,43,0,4,14976,183,124,172.5334,240,86.0000000000003,17,20
"560",9,43,0,2,14976,183,124,172.5334,240,206,18,19
"561",9,43,0,4,14976,183,124,172.5334,240,282.1,19,18
"562",9,43,0,3,14976,183,124,172.5334,240,6.19999999999976,20,17
"563",9,43,0,2,14976,183,124,172.5334,240,456.1,21,16
"564",9,43,0,4,14976,183,124,172.5334,240,4.10000000000021,22,15
"565",9,43,0,2,14976,183,124,172.5334,240,365.9,23,14
"566",9,43,0,4,14976,183,124,172.5334,240,738.300000000001,24,13
"567",9,43,0,2,14976,183,124,172.5334,240,9.90000000000002,25,12
"568",9,43,0,4,14976,183,124,172.5334,240,370.100000000001,26,11
"569",9,43,0,3,14976,183,124,172.5334,240,238.000000000001,27,10
"570",9,43,0,1,14976,183,124,172.5334,240,588.4,28,9
"571",9,43,0,3,14976,183,124,172.5334,240,549.799999999999,29,8
"572",9,43,0,1,14976,183,124,172.5334,240,497.8,30,7
"573",9,43,0,3,14976,183,124,172.5334,240,425.9,31,6
"574",9,43,0,2,14976,183,124,172.5334,240,136.4,32,5
"575",9,43,0,4,14976,183,124,172.5334,240,451.9,33,4
"576",9,43,0,3,14976,183,124,172.5334,240,198,34,3
"577",9,43,0,2,14976,183,124,172.5334,240,670,35,2
"578",9,43,0,4,14976,183,124,172.5334,240,605.600000000001,36,1
"579",9,44,1,1,2958.4,128,223,283,163.746,199.89,1,7
"580",9,44,1,3,2958.4,128,223,283,163.746,508.18,2,6
"581",9,44,1,1,2958.4,128,223,283,163.746,220.1,3,5
"582",9,44,1,2,2958.4,128,223,283,163.746,230.8,4,4
"583",9,44,1,4,2958.4,128,223,283,163.746,666,5,3
"584",9,44,1,1,2958.4,128,223,283,163.746,472,6,2
"585",9,44,1,4,2958.4,128,223,283,163.746,21.5000000000001,7,1
"586",9,45,0,1,6646.1,165,242.5782,176,113,237.92,1,13
"587",9,45,0,2,6646.1,165,242.5782,176,113,207.87,2,12
"588",9,45,0,4,6646.1,165,242.5782,176,113,231.97,3,11
"589",9,45,0,3,6646.1,165,242.5782,176,113,680.1,4,10
"590",9,45,0,1,6646.1,165,242.5782,176,113,619.8,5,9
"591",9,45,0,3,6646.1,165,242.5782,176,113,376,6,8
"592",9,45,0,1,6646.1,165,242.5782,176,113,432.9,7,7
"593",9,45,0,2,6646.1,165,242.5782,176,113,612.2,8,6
"594",9,45,0,4,6646.1,165,242.5782,176,113,499.8,9,5
"595",9,45,0,3,6646.1,165,242.5782,176,113,6.00000000000023,10,4
"596",9,45,0,2,6646.1,165,242.5782,176,113,20.0999999999993,11,3
"597",9,45,0,1,6646.1,165,242.5782,176,113,1060.3,12,2
"598",9,45,0,2,6646.1,165,242.5782,176,113,427.8,13,1
"599",9,46,1,2,2355,107.9837,239,295,143,399.99,1,5
"600",9,46,1,3,2355,107.9837,239,295,143,210.1,2,4
"601",9,46,1,1,2355,107.9837,239,295,143,313.98,3,3
"602",9,46,1,2,2355,107.9837,239,295,143,377.5,4,2
"603",9,46,1,4,2355,107.9837,239,295,143,447.5,5,1
"604",9,47,1,1,3440.3,265,210.4749,143,184,505.94,1,11
"605",9,47,1,3,3440.3,265,210.4749,143,184,241.84,2,10
"606",9,47,1,1,3440.3,265,210.4749,143,184,258.2,3,9
"607",9,47,1,2,3440.3,265,210.4749,143,184,185.9,4,8
"608",9,47,1,3,3440.3,265,210.4749,143,184,212.1,5,7
"609",9,47,1,2,3440.3,265,210.4749,143,184,203.9,6,6
"610",9,47,1,1,3440.3,265,210.4749,143,184,145.2,7,5
"611",9,47,1,3,3440.3,265,210.4749,143,184,186.2,8,4
"612",9,47,1,4,3440.3,265,210.4749,143,184,374.2,9,3
"613",9,47,1,2,3440.3,265,210.4749,143,184,367.8,10,2
"614",9,47,1,3,3440.3,265,210.4749,143,184,17.3000000000001,11,1
"615",9,48,1,1,3884.6,117.1301,201,240,150,249.94,1,11
"616",9,48,1,2,3884.6,117.1301,201,240,150,185.84,2,10
"617",9,48,1,3,3884.6,117.1301,201,240,150,235.97,3,9
"618",9,48,1,1,3884.6,117.1301,201,240,150,4.09999999999999,4,8
"619",9,48,1,2,3884.6,117.1301,201,240,150,574,5,7
"620",9,48,1,4,3884.6,117.1301,201,240,150,523.7,6,6
"621",9,48,1,2,3884.6,117.1301,201,240,150,387.9,7,5
"622",9,48,1,4,3884.6,117.1301,201,240,150,289.9,8,4
"623",9,48,1,3,3884.6,117.1301,201,240,150,199.8,9,3
"624",9,48,1,1,3884.6,117.1301,201,240,150,372,10,2
"625",9,48,1,2,3884.6,117.1301,201,240,150,53.2999999999997,11,1
"626",9,49,0,1,2710.6,96,42.7407,93,196,177.73,1,8
"627",9,49,0,3,2710.6,96,42.7407,93,196,319.61,2,7
"628",9,49,0,2,2710.6,96,42.7407,93,196,195.57,3,6
"629",9,49,0,4,2710.6,96,42.7407,93,196,580.1,4,5
"630",9,49,0,1,2710.6,96,42.7407,93,196,256,5,4
"631",9,49,0,3,2710.6,96,42.7407,93,196,179.9,6,3
"632",9,49,0,2,2710.6,96,42.7407,93,196,1.30000000000008,7,2
"633",9,49,0,4,2710.6,96,42.7407,93,196,139.2,8,1
"634",9,50,1,1,9919.9,97,147,273.8797,184,236.82,1,28
"635",9,50,1,3,9919.9,97,147,273.8797,184,107.97,2,27
"636",9,50,1,4,9919.9,97,147,273.8797,184,14.2599999999999,3,26
"637",9,50,1,1,9919.9,97,147,273.8797,184,347.4,4,25
"638",9,50,1,4,9919.9,97,147,273.8797,184,4,5,24
"639",9,50,1,2,9919.9,97,147,273.8797,184,280.2,6,23
"640",9,50,1,3,9919.9,97,147,273.8797,184,15.9000000000002,7,22
"641",9,50,1,4,9919.9,97,147,273.8797,184,1.70000000000003,8,21
"642",9,50,1,2,9919.9,97,147,273.8797,184,273.9,9,20
"643",9,50,1,4,9919.9,97,147,273.8797,184,3.89999999999979,10,19
"644",9,50,1,2,9919.9,97,147,273.8797,184,206,11,18
"645",9,50,1,1,9919.9,97,147,273.8797,184,306.7,12,17
"646",9,50,1,3,9919.9,97,147,273.8797,184,179.9,13,16
"647",9,50,1,2,9919.9,97,147,273.8797,184,386.1,14,15
"648",9,50,1,1,9919.9,97,147,273.8797,184,619,15,14
"649",9,50,1,2,9919.9,97,147,273.8797,184,156.2,16,13
"650",9,50,1,4,9919.9,97,147,273.8797,184,186,17,12
"651",9,50,1,3,9919.9,97,147,273.8797,184,198,18,11
"652",9,50,1,1,9919.9,97,147,273.8797,184,428.000000000001,19,10
"653",9,50,1,2,9919.9,97,147,273.8797,184,156.099999999999,20,9
"654",9,50,1,4,9919.9,97,147,273.8797,184,280.1,21,8
"655",9,50,1,2,9919.9,97,147,273.8797,184,342,22,7
"656",9,50,1,4,9919.9,97,147,273.8797,184,19.8999999999998,23,6
"657",9,50,1,3,9919.9,97,147,273.8797,184,964.1,24,5
"658",9,50,1,4,9919.9,97,147,273.8797,184,346.1,25,4
"659",9,50,1,3,9919.9,97,147,273.8797,184,353.300000000001,26,3
"660",9,50,1,1,9919.9,97,147,273.8797,184,245.900000000001,27,2
"661",9,50,1,3,9919.9,97,147,273.8797,184,139.5,28,1
"662",9,51,0,1,4270.1,222.0767,272,86,54,244.08,1,13
"663",9,51,0,3,4270.1,222.0767,272,86,54,229.95,2,12
"664",9,51,0,4,4270.1,222.0767,272,86,54,159.78,3,11
"665",9,51,0,2,4270.1,222.0767,272,86,54,240.11,4,10
"666",9,51,0,4,4270.1,222.0767,272,86,54,411.8,5,9
"667",9,51,0,1,4270.1,222.0767,272,86,54,260.1,6,8
"668",9,51,0,3,4270.1,222.0767,272,86,54,272,7,7
"669",9,51,0,1,4270.1,222.0767,272,86,54,402,8,6
"670",9,51,0,2,4270.1,222.0767,272,86,54,238.2,9,5
"671",9,51,0,4,4270.1,222.0767,272,86,54,346.1,10,4
"672",9,51,0,3,4270.1,222.0767,272,86,54,610,11,3
"673",9,51,0,1,4270.1,222.0767,272,86,54,210.300000000001,12,2
"674",9,51,0,2,4270.1,222.0767,272,86,54,146,13,1
"675",9,52,1,1,1930,118,69,104,166.4624,143.44,1,7
"676",9,52,1,3,1930,118,69,104,166.4624,253.79,2,6
"677",9,52,1,1,1930,118,69,104,166.4624,124.12,3,5
"678",9,52,1,2,1930,118,69,104,166.4624,176.08,4,4
"679",9,52,1,4,1930,118,69,104,166.4624,426,5,3
"680",9,52,1,1,1930,118,69,104,166.4624,295.9,6,2
"681",9,52,1,2,1930,118,69,104,166.4624,91.1,7,1
"682",9,53,0,3,2555,86,35.9532,101,205,226.39,1,6
"683",9,53,0,2,2555,86,35.9532,101,205,172.14,2,5
"684",9,53,0,4,2555,86,35.9532,101,205,332.1,3,4
"685",9,53,0,1,2555,86,35.9532,101,205,13.8999999999998,4,3
"686",9,53,0,3,2555,86,35.9532,101,205,245.8,5,2
"687",9,53,0,4,2555,86,35.9532,101,205,244,6,1
"688",9,54,1,3,2939.6,47,139.3325,284,102,225.01,1,8
"689",9,54,1,1,2939.6,47,139.3325,284,102,4.71999999999995,2,7
"690",9,54,1,2,2939.6,47,139.3325,284,102,219.88,3,6
"691",9,54,1,4,2939.6,47,139.3325,284,102,488.1,4,5
"692",9,54,1,3,2939.6,47,139.3325,284,102,112.1,5,4
"693",9,54,1,1,2939.6,47,139.3325,284,102,278.2,6,3
"694",9,54,1,2,2939.6,47,139.3325,284,102,319.9,7,2
"695",9,54,1,3,2939.6,47,139.3325,284,102,254.1,8,1
"696",9,55,1,3,1916.9,32,132.4739,243,107,223.9,1,5
"697",9,55,1,1,1916.9,32,132.4739,243,107,259.92,2,4
"698",9,55,1,2,1916.9,32,132.4739,243,107,263.91,3,3
"699",9,55,1,4,1916.9,32,132.4739,243,107,364.1,4,2
"700",9,55,1,3,1916.9,32,132.4739,243,107,192,5,1
"701",9,56,1,1,2113.6,47.2593,94,210,122,139.68,1,5
"702",9,56,1,2,2113.6,47.2593,94,210,122,135.83,2,4
"703",9,56,1,3,2113.6,47.2593,94,210,122,358.09,3,3
"704",9,56,1,4,2113.6,47.2593,94,210,122,285.9,4,2
"705",9,56,1,3,2113.6,47.2593,94,210,122,448.3,5,1
"706",9,57,0,1,1862.5,232,162,198,281.0036,227.88,1,5
"707",9,57,0,4,1862.5,232,162,198,281.0036,236.03,2,4
"708",9,57,0,3,1862.5,232,162,198,281.0036,120.06,3,3
"709",9,57,0,2,1862.5,232,162,198,281.0036,418,4,2
"710",9,57,0,1,1862.5,232,162,198,281.0036,266.9,5,1
"711",9,58,1,1,3204.4,79.7064,179,256,150,253.77,1,6
"712",9,58,1,2,3204.4,79.7064,179,256,150,182.01,2,5
"713",9,58,1,4,3204.4,79.7064,179,256,150,689,3,4
"714",9,58,1,3,3204.4,79.7064,179,256,150,500.1,4,3
"715",9,58,1,1,3204.4,79.7064,179,256,150,253.9,5,2
"716",9,58,1,3,3204.4,79.7064,179,256,150,97.1000000000002,6,1
"717",9,59,0,3,2772.4,72.1965,132,290,200,105.93,1,9
"718",9,59,0,4,2772.4,72.1965,132,290,200,14.01,2,8
"719",9,59,0,3,2772.4,72.1965,132,290,200,173.8,3,7
"720",9,59,0,1,2772.4,72.1965,132,290,200,160,4,6
"721",9,59,0,2,2772.4,72.1965,132,290,200,184.1,5,5
"722",9,59,0,4,2772.4,72.1965,132,290,200,688,6,4
"723",9,59,0,2,2772.4,72.1965,132,290,200,358.1,7,3
"724",9,59,0,3,2772.4,72.1965,132,290,200,14.1,8,2
"725",9,59,0,2,2772.4,72.1965,132,290,200,21.0000000000004,9,1
"726",9,60,0,3,9783.4,85,146,255,182.346,111.78,1,26
"727",9,60,0,4,9783.4,85,146,255,182.346,7.86999999999993,2,25
"728",9,60,0,3,9783.4,85,146,255,182.346,895.75,3,24
"729",9,60,0,4,9783.4,85,146,255,182.346,3.70000000000004,4,23
"730",9,60,0,1,9783.4,85,146,255,182.346,196.4,5,22
"731",9,60,0,4,9783.4,85,146,255,182.346,1.69999999999959,6,21
"732",9,60,0,3,9783.4,85,146,255,182.346,113.9,7,20
"733",9,60,0,4,9783.4,85,146,255,182.346,6.09999999999999,8,19
"734",9,60,0,1,9783.4,85,146,255,182.346,366,9,18
"735",9,60,0,2,9783.4,85,146,255,182.346,204,10,17
"736",9,60,0,1,9783.4,85,146,255,182.346,237.5,11,16
"737",9,60,0,3,9783.4,85,146,255,182.346,354.4,12,15
"738",9,60,0,1,9783.4,85,146,255,182.346,1.99999999999978,13,14
"739",9,60,0,2,9783.4,85,146,255,182.346,269.5,14,13
"740",9,60,0,4,9783.4,85,146,255,182.346,691.599999999999,15,12
"741",9,60,0,2,9783.4,85,146,255,182.346,207.7,16,11
"742",9,60,0,1,9783.4,85,146,255,182.346,421.9,17,10
"743",9,60,0,3,9783.4,85,146,255,182.346,230.499999999999,18,9
"744",9,60,0,2,9783.4,85,146,255,182.346,245.9,19,8
"745",9,60,0,4,9783.4,85,146,255,182.346,701.899999999999,20,7
"746",9,60,0,2,9783.4,85,146,255,182.346,544.1,21,6
"747",9,60,0,3,9783.4,85,146,255,182.346,622.2,22,5
"748",9,60,0,1,9783.4,85,146,255,182.346,222.200000000001,23,4
"749",9,60,0,3,9783.4,85,146,255,182.346,780.200000000001,24,3
"750",9,60,0,1,9783.4,85,146,255,182.346,220.000000000001,25,2
"751",9,60,0,2,9783.4,85,146,255,182.346,255.9,26,1
"752",9,61,0,1,3565.5,230,128,171.025,293,1218.97,1,8
"753",9,61,0,2,3565.5,230,128,171.025,293,244.1,2,7
"754",9,61,0,4,3565.5,230,128,171.025,293,247.9,3,6
"755",9,61,0,2,3565.5,230,128,171.025,293,242.1,4,5
"756",9,61,0,1,3565.5,230,128,171.025,293,119,5,4
"757",9,61,0,3,3565.5,230,128,171.025,293,432.2,6,3
"758",9,61,0,4,3565.5,230,128,171.025,293,4,7,2
"759",9,61,0,2,3565.5,230,128,171.025,293,303.2,8,1
"760",9,62,0,1,1555.4,154,90,121.9186,206,301.82,1,4
"761",9,62,0,3,1555.4,154,90,121.9186,206,256.16,2,3
"762",9,62,0,4,1555.4,154,90,121.9186,206,179.79,3,2
"763",9,62,0,2,1555.4,154,90,121.9186,206,505.1,4,1
"764",9,63,0,3,1612.1,156,92.1644,172,261,254.38,1,4
"765",9,63,0,1,1612.1,156,92.1644,172,261,212.05,2,3
"766",9,63,0,2,1612.1,156,92.1644,172,261,207.99,3,2
"767",9,63,0,4,1612.1,156,92.1644,172,261,388.8,4,1
"768",9,64,0,1,2125.6,202,163,233.3841,267,250.62,1,5
"769",9,64,0,3,2125.6,202,163,233.3841,267,266.15,2,4
"770",9,64,0,2,2125.6,202,163,233.3841,267,446.05,3,3
"771",9,64,0,4,2125.6,202,163,233.3841,267,325.9,4,2
"772",9,64,0,1,2125.6,202,163,233.3841,267,367,5,1
"773",9,65,1,1,9619.6,282.2638,148,79,177,245.74,1,19
"774",9,65,1,3,9619.6,282.2638,148,79,177,256.15,2,18
"775",9,65,1,4,9619.6,282.2638,148,79,177,245.21,3,17
"776",9,65,1,2,9619.6,282.2638,148,79,177,827.9,4,16
"777",9,65,1,4,9619.6,282.2638,148,79,177,332,5,15
"778",9,65,1,1,9619.6,282.2638,148,79,177,9.99999999999979,6,14
"779",9,65,1,3,9619.6,282.2638,148,79,177,32.1000000000002,7,13
"780",9,65,1,4,9619.6,282.2638,148,79,177,3.09999999999988,8,12
"781",9,65,1,1,9619.6,282.2638,148,79,177,99.8999999999999,9,11
"782",9,65,1,4,9619.6,282.2638,148,79,177,1246.2,10,10
"783",9,65,1,2,9619.6,282.2638,148,79,177,962.2,11,9
"784",9,65,1,3,9619.6,282.2638,148,79,177,20.2,12,8
"785",9,65,1,1,9619.6,282.2638,148,79,177,426.699999999999,13,7
"786",9,65,1,3,9619.6,282.2638,148,79,177,644.2,14,6
"787",9,65,1,1,9619.6,282.2638,148,79,177,324,15,5
"788",9,65,1,3,9619.6,282.2638,148,79,177,256.3,16,4
"789",9,65,1,1,9619.6,282.2638,148,79,177,1284.2,17,3
"790",9,65,1,3,9619.6,282.2638,148,79,177,666,18,2
"791",9,65,1,4,9619.6,282.2638,148,79,177,116.400000000001,19,1
"792",9,66,0,2,2415.1,47,90.2205,283,188,175.7,1,7
"793",9,66,0,4,2415.1,47,90.2205,283,188,294.59,2,6
"794",9,66,0,2,2415.1,47,90.2205,283,188,164.1,3,5
"795",9,66,0,1,2415.1,47,90.2205,283,188,236.1,4,4
"796",9,66,0,3,2415.1,47,90.2205,283,188,424,5,3
"797",9,66,0,2,2415.1,47,90.2205,283,188,208,6,2
"798",9,66,0,4,2415.1,47,90.2205,283,188,52.8,7,1
"799",9,67,1,1,4705.7,208,104,38,77.6151,271.93,1,15
"800",9,67,1,3,4705.7,208,104,38,77.6151,226.87,2,14
"801",9,67,1,1,4705.7,208,104,38,77.6151,219.97,3,13
"802",9,67,1,2,4705.7,208,104,38,77.6151,290.2,4,12
"803",9,67,1,4,4705.7,208,104,38,77.6151,364,5,11
"804",9,67,1,3,4705.7,208,104,38,77.6151,187.9,6,10
"805",9,67,1,2,4705.7,208,104,38,77.6151,368,7,9
"806",9,67,1,4,4705.7,208,104,38,77.6151,718,8,8
"807",9,67,1,3,4705.7,208,104,38,77.6151,2.09999999999999,9,7
"808",9,67,1,4,4705.7,208,104,38,77.6151,4.09999999999977,10,6
"809",9,67,1,2,4705.7,208,104,38,77.6151,10.8999999999999,11,5
"810",9,67,1,1,4705.7,208,104,38,77.6151,238,12,4
"811",9,67,1,3,4705.7,208,104,38,77.6151,374.2,13,3
"812",9,67,1,4,4705.7,208,104,38,77.6151,276,14,2
"813",9,67,1,2,4705.7,208,104,38,77.6151,80.9000000000006,15,1
"814",9,68,1,1,3411.8,191,148,52,100.5618,155.93,1,11
"815",9,68,1,3,3411.8,191,148,52,100.5618,251.99,2,10
"816",9,68,1,1,3411.8,191,148,52,100.5618,441.94,3,9
"817",9,68,1,2,3411.8,191,148,52,100.5618,242.1,4,8
"818",9,68,1,4,3411.8,191,148,52,100.5618,338.1,5,7
"819",9,68,1,2,3411.8,191,148,52,100.5618,487.9,6,6
"820",9,68,1,3,3411.8,191,148,52,100.5618,30.2000000000002,7,5
"821",9,68,1,1,3411.8,191,148,52,100.5618,220.1,8,4
"822",9,68,1,3,3411.8,191,148,52,100.5618,243.9,9,3
"823",9,68,1,4,3411.8,191,148,52,100.5618,252.1,10,2
"824",9,68,1,2,3411.8,191,148,52,100.5618,166.8,11,1
"825",9,69,0,1,2679.2,150.5413,236,155,87,223.92,1,8
"826",9,69,0,2,2679.2,150.5413,236,155,87,210,2,7
"827",9,69,0,4,2679.2,150.5413,236,155,87,334.56,3,6
"828",9,69,0,2,2679.2,150.5413,236,155,87,91.8999999999999,4,5
"829",9,69,0,1,2679.2,150.5413,236,155,87,236.1,5,4
"830",9,69,0,3,2679.2,150.5413,236,155,87,437.4,6,3
"831",9,69,0,4,2679.2,150.5413,236,155,87,140.5,7,2
"832",9,69,0,2,2679.2,150.5413,236,155,87,560.9,8,1
"833",9,70,0,1,2205.3,153,234,164,92.8337,373.99,1,4
"834",9,70,0,3,2205.3,153,234,164,92.8337,452.07,2,3
"835",9,70,0,2,2205.3,153,234,164,92.8337,230.8,3,2
"836",9,70,0,4,2205.3,153,234,164,92.8337,821,4,1
"837",9,71,0,3,2017.5,115,269.3988,139,59,3.70999999999999,1,7
"838",9,71,0,2,2017.5,115,269.3988,139,59,144.01,2,6
"839",9,71,0,4,2017.5,115,269.3988,139,59,194.07,3,5
"840",9,71,0,3,2017.5,115,269.3988,139,59,289.87,4,4
"841",9,71,0,1,2017.5,115,269.3988,139,59,327.8,5,3
"842",9,71,0,2,2017.5,115,269.3988,139,59,261.7,6,2
"843",9,71,0,4,2017.5,115,269.3988,139,59,123,7,1
"844",9,72,0,1,3054.9,159.5854,47,87,243,262.07,1,8
"845",9,72,0,3,3054.9,159.5854,47,87,243,286.04,2,7
"846",9,72,0,1,3054.9,159.5854,47,87,243,128.36,3,6
"847",9,72,0,2,3054.9,159.5854,47,87,243,278.16,4,5
"848",9,72,0,4,3054.9,159.5854,47,87,243,302,5,4
"849",9,72,0,2,3054.9,159.5854,47,87,243,380.1,6,3
"850",9,72,0,1,3054.9,159.5854,47,87,243,290.1,7,2
"851",9,72,0,3,3054.9,159.5854,47,87,243,472.2,8,1
"852",9,73,1,3,1424.2,263.4748,181,143,212,9.88,1,6
"853",9,73,1,1,1424.2,263.4748,181,143,212,218.12,2,5
"854",9,73,1,3,1424.2,263.4748,181,143,212,288.17,3,4
"855",9,73,1,1,1424.2,263.4748,181,143,212,210.48,4,3
"856",9,73,1,2,1424.2,263.4748,181,143,212,210.1,5,2
"857",9,73,1,4,1424.2,263.4748,181,143,212,110.4,6,1
"858",9,74,0,1,1195.4,181,298,179,117.7073,170.08,1,4
"859",9,74,0,4,1195.4,181,298,179,117.7073,346.09,2,3
"860",9,74,0,3,1195.4,181,298,179,117.7073,224.03,3,2
"861",9,74,0,1,1195.4,181,298,179,117.7073,70.8,4,1
"862",9,75,1,1,1763.7,85,142,257,181.5777,189.85,1,6
"863",9,75,1,3,1763.7,85,142,257,181.5777,491.79,2,5
"864",9,75,1,4,1763.7,85,142,257,181.5777,1.88999999999995,3,4
"865",9,75,1,1,1763.7,85,142,257,181.5777,145.98,4,3
"866",9,75,1,2,1763.7,85,142,257,181.5777,176.1,5,2
"867",9,75,1,4,1763.7,85,142,257,181.5777,409.9,6,1
"868",9,76,1,2,8561.5,123.1652,158,276,229,161.87,1,17
"869",9,76,1,4,8561.5,123.1652,158,276,229,419.89,2,16
"870",9,76,1,2,8561.5,123.1652,158,276,229,204.1,3,15
"871",9,76,1,1,8561.5,123.1652,158,276,229,221.9,4,14
"872",9,76,1,2,8561.5,123.1652,158,276,229,212,5,13
"873",9,76,1,1,8561.5,123.1652,158,276,229,756.1,6,12
"874",9,76,1,4,8561.5,123.1652,158,276,229,447.9,7,11
"875",9,76,1,2,8561.5,123.1652,158,276,229,522.1,8,10
"876",9,76,1,1,8561.5,123.1652,158,276,229,437.9,9,9
"877",9,76,1,3,8561.5,123.1652,158,276,229,330,10,8
"878",9,76,1,4,8561.5,123.1652,158,276,229,187.8,11,7
"879",9,76,1,3,8561.5,123.1652,158,276,229,447.8,12,6
"880",9,76,1,1,8561.5,123.1652,158,276,229,304.1,13,5
"881",9,76,1,3,8561.5,123.1652,158,276,229,815.8,14,4
"882",9,76,1,4,8561.5,123.1652,158,276,229,468,15,3
"883",9,76,1,3,8561.5,123.1652,158,276,229,312.200000000001,16,2
"884",9,76,1,1,8561.5,123.1652,158,276,229,353.900000000001,17,1
"885",9,77,1,1,1113.5,286,194.2197,147,232,267.83,1,4
"886",9,77,1,3,1113.5,286,194.2197,147,232,235.96,2,3
"887",9,77,1,4,1113.5,286,194.2197,147,232,178.05,3,2
"888",9,77,1,2,1113.5,286,194.2197,147,232,134.41,4,1
"889",9,78,1,1,2681.7,128,77.3563,30,62,224.8,1,9
"890",9,78,1,2,2681.7,128,77.3563,30,62,212.11,2,8
"891",9,78,1,4,2681.7,128,77.3563,30,62,287.98,3,7
"892",9,78,1,3,2681.7,128,77.3563,30,62,150.1,4,6
"893",9,78,1,1,2681.7,128,77.3563,30,62,382.3,5,5
"894",9,78,1,2,2681.7,128,77.3563,30,62,284.2,6,4
"895",9,78,1,4,2681.7,128,77.3563,30,62,574.1,7,3
"896",9,78,1,3,2681.7,128,77.3563,30,62,135.9,8,2
"897",9,78,1,1,2681.7,128,77.3563,30,62,48.6,9,1
"898",9,79,1,1,2371.6,74,135.1494,291,197,783.96,1,6
"899",9,79,1,2,2371.6,74,135.1494,291,197,228.1,2,5
"900",9,79,1,4,2371.6,74,135.1494,291,197,468.4,3,4
"901",9,79,1,2,2371.6,74,135.1494,291,197,194.4,4,3
"902",9,79,1,1,2371.6,74,135.1494,291,197,258.4,5,2
"903",9,79,1,3,2371.6,74,135.1494,291,197,9.90000000000002,6,1
"904",9,80,0,3,4691,46,131.0204,286,150,211.54,1,10
"905",9,80,0,1,4691,46,131.0204,286,150,4.09999999999999,2,9
"906",9,80,0,2,4691,46,131.0204,286,150,267.9,3,8
"907",9,80,0,4,4691,46,131.0204,286,150,316,4,7
"908",9,80,0,3,4691,46,131.0204,286,150,688,5,6
"909",9,80,0,2,4691,46,131.0204,286,150,134,6,5
"910",9,80,0,4,4691,46,131.0204,286,150,450,7,4
"911",9,80,0,3,4691,46,131.0204,286,150,363.8,8,3
"912",9,80,0,1,4691,46,131.0204,286,150,165.999999999999,9,2
"913",9,80,0,2,4691,46,131.0204,286,150,95.6999999999999,10,1
"914",9,81,1,3,1500.7,205,170,217.4678,262,56.98,1,4
"915",9,81,1,1,1500.7,205,170,217.4678,262,230.82,2,3
"916",9,81,1,2,1500.7,205,170,217.4678,262,225,3,2
"917",9,81,1,4,1500.7,205,170,217.4678,262,206.7,4,1
"918",9,82,0,2,5175.3,162,261,131,80.4982,14,1,11
"919",9,82,0,4,5175.3,162,261,131,80.4982,248.08,2,10
"920",9,82,0,1,5175.3,162,261,131,80.4982,173.9,3,9
"921",9,82,0,3,5175.3,162,261,131,80.4982,473.8,4,8
"922",9,82,0,1,5175.3,162,261,131,80.4982,538.2,5,7
"923",9,82,0,2,5175.3,162,261,131,80.4982,271.7,6,6
"924",9,82,0,4,5175.3,162,261,131,80.4982,537.7,7,5
"925",9,82,0,3,5175.3,162,261,131,80.4982,350.1,8,4
"926",9,82,0,1,5175.3,162,261,131,80.4982,1014.2,9,3
"927",9,82,0,3,5175.3,162,261,131,80.4982,462.000000000001,10,2
"928",9,82,0,2,5175.3,162,261,131,80.4982,60.6,11,1
"929",9,83,0,1,3798.7,125,279,186,72.4665,179.25,1,11
"930",9,83,0,2,3798.7,125,279,186,72.4665,112.05,2,10
"931",9,83,0,4,3798.7,125,279,186,72.4665,234.67,3,9
"932",9,83,0,2,3798.7,125,279,186,72.4665,583.82,4,8
"933",9,83,0,1,3798.7,125,279,186,72.4665,256.1,5,7
"934",9,83,0,3,3798.7,125,279,186,72.4665,556.7,6,6
"935",9,83,0,1,3798.7,125,279,186,72.4665,302.1,7,5
"936",9,83,0,2,3798.7,125,279,186,72.4665,201.2,8,4
"937",9,83,0,4,3798.7,125,279,186,72.4665,368.8,9,3
"938",9,83,0,3,3798.7,125,279,186,72.4665,233.9,10,2
"939",9,83,0,1,3798.7,125,279,186,72.4665,334.5,11,1
"940",9,84,0,1,2213.9,165,216,181,133.2518,274.06,1,8
"941",9,84,0,3,2213.9,165,216,181,133.2518,196,2,7
"942",9,84,0,4,2213.9,165,216,181,133.2518,189.85,3,6
"943",9,84,0,2,2213.9,165,216,181,133.2518,304.11,4,5
"944",9,84,0,4,2213.9,165,216,181,133.2518,261,5,4
"945",9,84,0,3,2213.9,165,216,181,133.2518,236.9,6,3
"946",9,84,0,1,2213.9,165,216,181,133.2518,353.4,7,2
"947",9,84,0,3,2213.9,165,216,181,133.2518,14.2000000000002,8,1
"948",9,85,0,1,5576.8,179.7826,238,139,86,203.98,1,21
"949",9,85,0,2,5576.8,179.7826,238,139,86,189.89,2,20
"950",9,85,0,4,5576.8,179.7826,238,139,86,181.96,3,19
"951",9,85,0,2,5576.8,179.7826,238,139,86,257.6,4,18
"952",9,85,0,3,5576.8,179.7826,238,139,86,2.19999999999998,5,17
"953",9,85,0,4,5576.8,179.7826,238,139,86,1.90000000000001,6,16
"954",9,85,0,3,5576.8,179.7826,238,139,86,2,7,15
"955",9,85,0,2,5576.8,179.7826,238,139,86,3.90000000000001,8,14
"956",9,85,0,1,5576.8,179.7826,238,139,86,306.1,9,13
"957",9,85,0,3,5576.8,179.7826,238,139,86,286.1,10,12
"958",9,85,0,1,5576.8,179.7826,238,139,86,290,11,11
"959",9,85,0,2,5576.8,179.7826,238,139,86,285.8,12,10
"960",9,85,0,4,5576.8,179.7826,238,139,86,381.9,13,9
"961",9,85,0,2,5576.8,179.7826,238,139,86,311.7,14,8
"962",9,85,0,4,5576.8,179.7826,238,139,86,264.4,15,7
"963",9,85,0,3,5576.8,179.7826,238,139,86,258.4,16,6
"964",9,85,0,1,5576.8,179.7826,238,139,86,456,17,5
"965",9,85,0,2,5576.8,179.7826,238,139,86,224,18,4
"966",9,85,0,4,5576.8,179.7826,238,139,86,208.6,19,3
"967",9,85,0,3,5576.8,179.7826,238,139,86,181.8,20,2
"968",9,85,0,1,5576.8,179.7826,238,139,86,10.6000000000002,21,1
"969",9,86,0,4,3352.8,204,250,189.8031,152,1.78,1,7
"970",9,86,0,1,3352.8,204,250,189.8031,152,196.03,2,6
"971",9,86,0,3,3352.8,204,250,189.8031,152,257.94,3,5
"972",9,86,0,1,3352.8,204,250,189.8031,152,646.3,4,4
"973",9,86,0,3,3352.8,204,250,189.8031,152,622,5,3
"974",9,86,0,2,3352.8,204,250,189.8031,152,207.9,6,2
"975",9,86,0,4,3352.8,204,250,189.8031,152,340,7,1
"976",9,87,0,1,13253.5,123,265,132,33.5172,119.82,1,24
"977",9,87,0,2,13253.5,123,265,132,33.5172,317.76,2,23
"978",9,87,0,4,13253.5,123,265,132,33.5172,602.18,3,22
"979",9,87,0,1,13253.5,123,265,132,33.5172,258.2,4,21
"980",9,87,0,3,13253.5,123,265,132,33.5172,310.3,5,20
"981",9,87,0,1,13253.5,123,265,132,33.5172,513.9,6,19
"982",9,87,0,2,13253.5,123,265,132,33.5172,256.1,7,18
"983",9,87,0,3,13253.5,123,265,132,33.5172,2766,8,17
"984",9,87,0,1,13253.5,123,265,132,33.5172,388.1,9,16
"985",9,87,0,3,13253.5,123,265,132,33.5172,194.199999999999,10,15
"986",9,87,0,1,13253.5,123,265,132,33.5172,1514.1,11,14
"987",9,87,0,3,13253.5,123,265,132,33.5172,365.9,12,13
"988",9,87,0,4,13253.5,123,265,132,33.5172,768.099999999999,13,12
"989",9,87,0,2,13253.5,123,265,132,33.5172,267.999999999999,14,11
"990",9,87,0,1,13253.5,123,265,132,33.5172,428.4,15,10
"991",9,87,0,3,13253.5,123,265,132,33.5172,455.9,16,9
"992",9,87,0,2,13253.5,123,265,132,33.5172,255.600000000001,17,8
"993",9,87,0,4,13253.5,123,265,132,33.5172,1.69999999999959,18,7
"994",9,87,0,3,13253.5,123,265,132,33.5172,10.1000000000013,19,6
"995",9,87,0,2,13253.5,123,265,132,33.5172,437.999999999999,20,5
"996",9,87,0,4,13253.5,123,265,132,33.5172,441.9,21,4
"997",9,87,0,1,13253.5,123,265,132,33.5172,454.2,22,3
"998",9,87,0,3,13253.5,123,265,132,33.5172,111.800000000001,23,2
"999",9,87,0,1,13253.5,123,265,132,33.5172,674.100000000001,24,1
"1000",9,88,0,2,1390.4,197.2434,67,114,299,131.9,1,4
"1001",9,88,0,1,1390.4,197.2434,67,114,299,185.95,2,3
"1002",9,88,0,3,1390.4,197.2434,67,114,299,289.98,3,2
"1003",9,88,0,1,1390.4,197.2434,67,114,299,198.3,4,1
"1004",9,89,1,3,1610.4,40,117.0609,289,177,243.89,1,4
"1005",9,89,1,2,1610.4,40,117.0609,289,177,189.82,2,3
"1006",9,89,1,4,1610.4,40,117.0609,289,177,370,3,2
"1007",9,89,1,2,1610.4,40,117.0609,289,177,78.2,4,1
"1008",9,90,0,3,3682.4,141,50,111.5508,267,16.02,1,8
"1009",9,90,0,1,3682.4,141,50,111.5508,267,141.94,2,7
"1010",9,90,0,2,3682.4,141,50,111.5508,267,173.92,3,6
"1011",9,90,0,1,3682.4,141,50,111.5508,267,492.1,4,5
"1012",9,90,0,3,3682.4,141,50,111.5508,267,480,5,4
"1013",9,90,0,4,3682.4,141,50,111.5508,267,691.9,6,3
"1014",9,90,0,1,3682.4,141,50,111.5508,267,916.2,7,2
"1015",9,90,0,2,3682.4,141,50,111.5508,267,168.3,8,1
"1016",9,91,0,1,2692.1,104.8042,56,148,238,272.09,1,6
"1017",9,91,0,4,2692.1,104.8042,56,148,238,489.97,2,5
"1018",9,91,0,2,2692.1,104.8042,56,148,238,178,3,4
"1019",9,91,0,1,2692.1,104.8042,56,148,238,70.1000000000001,4,3
"1020",9,91,0,3,2692.1,104.8042,56,148,238,292.1,5,2
"1021",9,91,0,2,2692.1,104.8042,56,148,238,96.4,6,1
"1022",9,92,0,1,1826.6,189.0146,233,190,154,334.51,1,5
"1023",9,92,0,3,1826.6,189.0146,233,190,154,203.88,2,4
"1024",9,92,0,1,1826.6,189.0146,233,190,154,344.01,3,3
"1025",9,92,0,2,1826.6,189.0146,233,190,154,206.1,4,2
"1026",9,92,0,4,1826.6,189.0146,233,190,154,290.3,5,1
"1027",9,93,0,3,1169.9,130.8132,88,166,229,5.94,1,5
"1028",9,93,0,1,1169.9,130.8132,88,166,229,199.91,2,4
"1029",9,93,0,2,1169.9,130.8132,88,166,229,209.99,3,3
"1030",9,93,0,1,1169.9,130.8132,88,166,229,180.03,4,2
"1031",9,93,0,3,1169.9,130.8132,88,166,229,88.3,5,1
"1032",9,94,0,1,2553.4,97,33.2771,122,274,235.95,1,6
"1033",9,94,0,3,2553.4,97,33.2771,122,274,340.1,2,5
"1034",9,94,0,4,2553.4,97,33.2771,122,274,312,3,4
"1035",9,94,0,3,2553.4,97,33.2771,122,274,3.90000000000001,4,3
"1036",9,94,0,4,2553.4,97,33.2771,122,274,1.90000000000001,5,2
"1037",9,94,0,3,2553.4,97,33.2771,122,274,162.3,6,1
"1038",9,95,0,4,2127.9,171,96.2042,157,238,161.9,1,7
"1039",9,95,0,2,2127.9,171,96.2042,157,238,325.96,2,6
"1040",9,95,0,1,2127.9,171,96.2042,157,238,263.94,3,5
"1041",9,95,0,3,2127.9,171,96.2042,157,238,240,4,4
"1042",9,95,0,4,2127.9,171,96.2042,157,238,9.90000000000002,5,3
"1043",9,95,0,2,2127.9,171,96.2042,157,238,290.5,6,2
"1044",9,95,0,1,2127.9,171,96.2042,157,238,164,7,1
"1045",9,96,1,1,2265.3,189,102.1685,66,130,183.93,1,7
"1046",9,96,1,3,2265.3,189,102.1685,66,130,218.7,2,6
"1047",9,96,1,1,2265.3,189,102.1685,66,130,151.79,3,5
"1048",9,96,1,2,2265.3,189,102.1685,66,130,175.8,4,4
"1049",9,96,1,4,2265.3,189,102.1685,66,130,343,5,3
"1050",9,96,1,3,2265.3,189,102.1685,66,130,290,6,2
"1051",9,96,1,2,2265.3,189,102.1685,66,130,204.1,7,1
"1052",9,97,0,4,2012.1,142,76,135,227.2887,231.63,1,5
"1053",9,97,0,3,2012.1,142,76,135,227.2887,180.87,2,4
"1054",9,97,0,2,2012.1,142,76,135,227.2887,240.82,3,3
"1055",9,97,0,1,2012.1,142,76,135,227.2887,273,4,2
"1056",9,97,0,3,2012.1,142,76,135,227.2887,257.1,5,1
"1057",9,98,0,4,1606.8,183,46,92.6492,289,1.96999999999992,1,1
"1058",9,99,1,3,1708.4,227,144,67,112.6158,237.78,1,2
"1059",9,99,1,4,1708.4,227,144,67,112.6158,267.9,2,1
"1060",9,100,0,1,1088.4,182,124,199,277.912,182.45,1,4
"1061",9,100,0,2,1088.4,182,124,199,277.912,249.59,2,3
"1062",9,100,0,1,1088.4,182,124,199,277.912,234.06,3,2
"1063",9,100,0,3,1088.4,182,124,199,277.912,120.32,4,1
"1064",9,101,1,3,1933.8,160,192,276.708,237,1.963,1,8
"1065",9,101,1,1,1933.8,160,192,276.708,237,1.95000000000001,2,7
"1066",9,101,1,2,1933.8,160,192,276.708,237,176,3,6
"1067",9,101,1,4,1933.8,160,192,276.708,237,207.99,4,5
"1068",9,101,1,3,1933.8,160,192,276.708,237,250.1,5,4
"1069",9,101,1,1,1933.8,160,192,276.708,237,213.7,6,3
"1070",9,101,1,2,1933.8,160,192,276.708,237,176,7,2
"1071",9,101,1,4,1933.8,160,192,276.708,237,159.3,8,1
"1072",9,102,0,4,990.51,124,46.3955,105,214,96.05,1,1
"1073",9,103,1,4,1241.3,279,195,78,123.5882,179.98,1,3
"1074",9,103,1,3,1241.3,279,195,78,123.5882,643.99,2,2
"1075",9,103,1,2,1241.3,279,195,78,123.5882,114.2,3,1
"1076",9,104,1,3,1735.1,79,112,184.1219,141,237.84,1,4
"1077",9,104,1,1,1735.1,79,112,184.1219,141,249.87,2,3
"1078",9,104,1,2,1735.1,79,112,184.1219,141,222.2,3,2
"1079",9,104,1,4,1735.1,79,112,184.1219,141,297.4,4,1
"1080",9,105,0,4,2626.5,97,216.5706,163,57,275.79,1,9
"1081",9,105,0,2,2626.5,97,216.5706,163,57,305.96,2,8
"1082",9,105,0,4,2626.5,97,216.5706,163,57,4.09999999999999,3,7
"1083",9,105,0,3,2626.5,97,216.5706,163,57,14.1,4,6
"1084",9,105,0,1,2626.5,97,216.5706,163,57,86.0000000000001,5,5
"1085",9,105,0,3,2626.5,97,216.5706,163,57,306.2,6,4
"1086",9,105,0,1,2626.5,97,216.5706,163,57,301.9,7,3
"1087",9,105,0,2,2626.5,97,216.5706,163,57,272.2,8,2
"1088",9,105,0,4,2626.5,97,216.5706,163,57,45.9,9,1
"1089",9,106,0,1,3234.8,260,92.3709,43,210,419.79,1,9
"1090",9,106,0,3,3234.8,260,92.3709,43,210,207.97,2,8
"1091",9,106,0,4,3234.8,260,92.3709,43,210,524.08,3,7
"1092",9,106,0,3,3234.8,260,92.3709,43,210,6.09999999999999,4,6
"1093",9,106,0,4,3234.8,260,92.3709,43,210,5.20000000000009,5,5
"1094",9,106,0,2,3234.8,260,92.3709,43,210,315.8,6,4
"1095",9,106,0,3,3234.8,260,92.3709,43,210,260.2,7,3
"1096",9,106,0,1,3234.8,260,92.3709,43,210,440.2,8,2
"1097",9,106,0,4,3234.8,260,92.3709,43,210,523,9,1
"1098",9,107,0,3,2051.3,167,120,173.8065,224,121.81,1,6
"1099",9,107,0,1,2051.3,167,120,173.8065,224,132.03,2,5
"1100",9,107,0,2,2051.3,167,120,173.8065,224,235.98,3,4
"1101",9,107,0,4,2051.3,167,120,173.8065,224,365.8,4,3
"1102",9,107,0,3,2051.3,167,120,173.8065,224,172.2,5,2
"1103",9,107,0,1,2051.3,167,120,173.8065,224,444,6,1
"1104",9,108,0,1,4516.2,181.9277,247,123,89,212.06,1,10
"1105",9,108,0,2,4516.2,181.9277,247,123,89,204.04,2,9
"1106",9,108,0,4,4516.2,181.9277,247,123,89,212.11,3,8
"1107",9,108,0,3,4516.2,181.9277,247,123,89,182,4,7
"1108",9,108,0,1,4516.2,181.9277,247,123,89,361.9,5,6
"1109",9,108,0,3,4516.2,181.9277,247,123,89,375.5,6,5
"1110",9,108,0,1,4516.2,181.9277,247,123,89,502,7,4
"1111",9,108,0,2,4516.2,181.9277,247,123,89,344.1,8,3
"1112",9,108,0,4,4516.2,181.9277,247,123,89,503.9,9,2
"1113",9,108,0,3,4516.2,181.9277,247,123,89,194,10,1
"1114",9,109,0,1,2306.3,191.3091,257,119,52,238.76,1,7
"1115",9,109,0,3,2306.3,191.3091,257,119,52,250.15,2,6
"1116",9,109,0,4,2306.3,191.3091,257,119,52,244.2,3,5
"1117",9,109,0,3,2306.3,191.3091,257,119,52,249.9,4,4
"1118",9,109,0,1,2306.3,191.3091,257,119,52,188,5,3
"1119",9,109,0,2,2306.3,191.3091,257,119,52,192.1,6,2
"1120",9,109,0,3,2306.3,191.3091,257,119,52,104.2,7,1
"1121",9,110,1,3,2581.6,77,108.2796,242,211,490.88,1,8
"1122",9,110,1,1,2581.6,77,108.2796,242,211,152.06,2,7
"1123",9,110,1,2,2581.6,77,108.2796,242,211,278.04,3,6
"1124",9,110,1,1,2581.6,77,108.2796,242,211,183.8,4,5
"1125",9,110,1,2,2581.6,77,108.2796,242,211,160,5,4
"1126",9,110,1,4,2581.6,77,108.2796,242,211,409.9,6,3
"1127",9,110,1,2,2581.6,77,108.2796,242,211,306.1,7,2
"1128",9,110,1,1,2581.6,77,108.2796,242,211,128,8,1
"1129",9,111,1,3,3204.9,201.4052,106,44,105,488.181,1,8
"1130",9,111,1,1,3204.9,201.4052,106,44,105,438.03,2,7
"1131",9,111,1,2,3204.9,201.4052,106,44,105,232.1,3,6
"1132",9,111,1,4,3204.9,201.4052,106,44,105,325.7,4,5
"1133",9,111,1,3,3204.9,201.4052,106,44,105,8.1,5,4
"1134",9,111,1,1,3204.9,201.4052,106,44,105,407.8,6,3
"1135",9,111,1,3,3204.9,201.4052,106,44,105,225.9,7,2
"1136",9,111,1,4,3204.9,201.4052,106,44,105,538,8,1
"1137",9,112,1,3,1522.3,284,206,140.4468,197,1.993,1,6
"1138",9,112,1,1,1522.3,284,206,140.4468,197,245.83,2,5
"1139",9,112,1,3,1522.3,284,206,140.4468,197,347.5,3,4
"1140",9,112,1,1,1522.3,284,206,140.4468,197,184.05,4,3
"1141",9,112,1,2,1522.3,284,206,140.4468,197,204.6,5,2
"1142",9,112,1,4,1522.3,284,206,140.4468,197,185.9,6,1
"1143",9,113,1,1,1427.1,246,203.654,124,156,233.95,1,4
"1144",9,113,1,3,1427.1,246,203.654,124,156,261.78,2,3
"1145",9,113,1,1,1427.1,246,203.654,124,156,129.3,3,2
"1146",9,113,1,2,1427.1,246,203.654,124,156,15.8,4,1
"1147",9,114,1,4,1268.9,107,196.6513,237,148,25.82,1,3
"1148",9,114,1,3,1268.9,107,196.6513,237,148,166.15,2,2
"1149",9,114,1,1,1268.9,107,196.6513,237,148,239.6,3,1
"1150",9,115,1,2,1323.9,33.0417,80,257,114,153.87,1,2
"1151",9,115,1,4,1323.9,33.0417,80,257,114,356.37,2,1
"1152",9,116,1,1,1451.2,217,157,106.112,163,205.62,1,5
"1153",9,116,1,3,1451.2,217,157,106.112,163,209.62,2,4
"1154",9,116,1,1,1451.2,217,157,106.112,163,258.39,3,3
"1155",9,116,1,2,1451.2,217,157,106.112,163,208.16,4,2
"1156",9,116,1,4,1451.2,217,157,106.112,163,239.5,5,1
"1157",9,117,1,1,1247.1,190,145.8271,189,238,407.1,1,3
"1158",9,117,1,3,1247.1,190,145.8271,189,238,192.02,2,2
"1159",9,117,1,4,1247.1,190,145.8271,189,238,121.6,3,1
"1160",9,118,0,3,4568.1,141,175.737,128,94,222.05,1,12
"1161",9,118,0,1,4568.1,141,175.737,128,94,216.14,2,11
"1162",9,118,0,2,4568.1,141,175.737,128,94,215.95,3,10
"1163",9,118,0,4,4568.1,141,175.737,128,94,299.9,4,9
"1164",9,118,0,3,4568.1,141,175.737,128,94,264.1,5,8
"1165",9,118,0,1,4568.1,141,175.737,128,94,530.1,6,7
"1166",9,118,0,3,4568.1,141,175.737,128,94,349.8,7,6
"1167",9,118,0,4,4568.1,141,175.737,128,94,450.2,8,5
"1168",9,118,0,2,4568.1,141,175.737,128,94,610.1,9,4
"1169",9,118,0,1,4568.1,141,175.737,128,94,127.8,10,3
"1170",9,118,0,4,4568.1,141,175.737,128,94,134.1,11,2
"1171",9,118,0,3,4568.1,141,175.737,128,94,212.000000000001,12,1
"1172",9,119,0,4,1843.1,194,298,223,142.9261,257.94,1,3
"1173",9,119,0,3,1843.1,194,298,223,142.9261,207.83,2,2
"1174",9,119,0,1,1843.1,194,298,223,142.9261,468.08,3,1
"1175",9,120,0,1,3617.3,262,168,38.8462,148,509.62,1,9
"1176",9,120,0,2,3617.3,262,168,38.8462,148,274.21,2,8
"1177",9,120,0,4,3617.3,262,168,38.8462,148,458,3,7
"1178",9,120,0,3,3617.3,262,168,38.8462,148,171.5,4,6
"1179",9,120,0,1,3617.3,262,168,38.8462,148,218.1,5,5
"1180",9,120,0,3,3617.3,262,168,38.8462,148,77.9000000000001,6,4
"1181",9,120,0,1,3617.3,262,168,38.8462,148,406.1,7,3
"1182",9,120,0,2,3617.3,262,168,38.8462,148,844.5,8,2
"1183",9,120,0,4,3617.3,262,168,38.8462,148,149.7,9,1
"1184",9,121,0,3,1230.8,155,72,103,219.9473,243.96,1,3
"1185",9,121,0,4,1230.8,155,72,103,219.9473,216.01,2,2
"1186",9,121,0,2,1230.8,155,72,103,219.9473,185.8,3,1
"1187",9,122,0,2,2245.7,226.5215,55,90,295,137.83,1,6
"1188",9,122,0,1,2245.7,226.5215,55,90,295,462.07,2,5
"1189",9,122,0,3,2245.7,226.5215,55,90,295,88.0000000000001,3,4
"1190",9,122,0,4,2245.7,226.5215,55,90,295,8.00000000000001,4,3
"1191",9,122,0,3,2245.7,226.5215,55,90,295,446.1,5,2
"1192",9,122,0,4,2245.7,226.5215,55,90,295,165.3,6,1
"1193",9,123,1,3,1551.7,59.5619,119,170,120,241.78,1,4
"1194",9,123,1,2,1551.7,59.5619,119,170,120,163.85,2,3
"1195",9,123,1,4,1551.7,59.5619,119,170,120,370.2,3,2
"1196",9,123,1,2,1551.7,59.5619,119,170,120,149.8,4,1
"1197",9,124,0,3,7266.8,241,188.2743,100,163,224.04,1,18
"1198",9,124,0,1,7266.8,241,188.2743,100,163,184.01,2,17
"1199",9,124,0,2,7266.8,241,188.2743,100,163,520.04,3,16
"1200",9,124,0,3,7266.8,241,188.2743,100,163,226.1,4,15
"1201",9,124,0,4,7266.8,241,188.2743,100,163,631.9,5,14
"1202",9,124,0,2,7266.8,241,188.2743,100,163,488.6,6,13
"1203",9,124,0,1,7266.8,241,188.2743,100,163,555.9,7,12
"1204",9,124,0,3,7266.8,241,188.2743,100,163,164.3,8,11
"1205",9,124,0,4,7266.8,241,188.2743,100,163,532,9,10
"1206",9,124,0,3,7266.8,241,188.2743,100,163,427.9,10,9
"1207",9,124,0,1,7266.8,241,188.2743,100,163,304,11,8
"1208",9,124,0,3,7266.8,241,188.2743,100,163,95.9000000000003,12,7
"1209",9,124,0,4,7266.8,241,188.2743,100,163,480,13,6
"1210",9,124,0,3,7266.8,241,188.2743,100,163,445.8,14,5
"1211",9,124,0,1,7266.8,241,188.2743,100,163,464.9,15,4
"1212",9,124,0,3,7266.8,241,188.2743,100,163,60.7999999999995,16,3
"1213",9,124,0,2,7266.8,241,188.2743,100,163,351.9,17,2
"1214",9,124,0,1,7266.8,241,188.2743,100,163,5.89999999999957,18,1
"1215",9,125,1,4,2326.6,36,143,246.6045,117,118.991,1,7
"1216",9,125,1,3,2326.6,36,143,246.6045,117,376.12,2,6
"1217",9,125,1,2,2326.6,36,143,246.6045,117,267,3,5
"1218",9,125,1,4,2326.6,36,143,246.6045,117,463.8,4,4
"1219",9,125,1,3,2326.6,36,143,246.6045,117,23.0000000000001,5,3
"1220",9,125,1,1,2326.6,36,143,246.6045,117,239.9,6,2
"1221",9,125,1,2,2326.6,36,143,246.6045,117,156.1,7,1
"1222",9,126,0,4,2848.3,136,64.0041,162,280,201.95,1,9
"1223",9,126,0,3,2848.3,136,64.0041,162,280,4,2,8
"1224",9,126,0,4,2848.3,136,64.0041,162,280,6.03999999999993,3,7
"1225",9,126,0,1,2848.3,136,64.0041,162,280,184.1,4,6
"1226",9,126,0,3,2848.3,136,64.0041,162,280,296.1,5,5
"1227",9,126,0,1,2848.3,136,64.0041,162,280,446.1,6,4
"1228",9,126,0,3,2848.3,136,64.0041,162,280,69.9999999999998,7,3
"1229",9,126,0,4,2848.3,136,64.0041,162,280,3.89999999999979,8,2
"1230",9,126,0,2,2848.3,136,64.0041,162,280,537.6,9,1
"1231",9,127,0,3,5148.4,100.9961,31,146,295,6.00000000000001,1,11
"1232",9,127,0,1,5148.4,100.9961,31,146,295,166.11,2,10
"1233",9,127,0,3,5148.4,100.9961,31,146,295,395.22,3,9
"1234",9,127,0,1,5148.4,100.9961,31,146,295,296.3,4,8
"1235",9,127,0,3,5148.4,100.9961,31,146,295,4,5,7
"1236",9,127,0,4,5148.4,100.9961,31,146,295,1201.9,6,6
"1237",9,127,0,3,5148.4,100.9961,31,146,295,365.9,7,5
"1238",9,127,0,1,5148.4,100.9961,31,146,295,534.1,8,4
"1239",9,127,0,3,5148.4,100.9961,31,146,295,424.1,9,3
"1240",9,127,0,2,5148.4,100.9961,31,146,295,222,10,2
"1241",9,127,0,4,5148.4,100.9961,31,146,295,503.6,11,1
"1242",9,128,1,3,1780.5,50.3627,139,197,90,349.98,1,4
"1243",9,128,1,2,1780.5,50.3627,139,197,90,240,2,3
"1244",9,128,1,4,1780.5,50.3627,139,197,90,301.9,3,2
"1245",9,128,1,2,1780.5,50.3627,139,197,90,77.6999999999999,4,1
"1246",9,129,1,3,1827.6,76,130,245,160.2041,309.85,1,5
"1247",9,129,1,4,1827.6,76,130,245,160.2041,1.89000000000006,2,4
"1248",9,129,1,2,1827.6,76,130,245,160.2041,178.1,3,3
"1249",9,129,1,4,1827.6,76,130,245,160.2041,254.1,4,2
"1250",9,129,1,1,1827.6,76,130,245,160.2041,23.9,5,1
"1251",9,130,1,3,1753.1,158,100,39,80.6942,207.72,1,4
"1252",9,130,1,1,1753.1,158,100,39,80.6942,229.92,2,3
"1253",9,130,1,2,1753.1,158,100,39,80.6942,191.42,3,2
"1254",9,130,1,4,1753.1,158,100,39,80.6942,373.9,4,1
"1255",9,131,1,4,3079.4,182,222,265.1475,226,67.94,1,8
"1256",9,131,1,3,3079.4,182,222,265.1475,226,156.47,2,7
"1257",9,131,1,1,3079.4,182,222,265.1475,226,248.06,3,6
"1258",9,131,1,2,3079.4,182,222,265.1475,226,224,4,5
"1259",9,131,1,4,3079.4,182,222,265.1475,226,262,5,4
"1260",9,131,1,1,3079.4,182,222,265.1475,226,700,6,3
"1261",9,131,1,3,3079.4,182,222,265.1475,226,283.9,7,2
"1262",9,131,1,2,3079.4,182,222,265.1475,226,267.7,8,1
"1263",9,132,1,3,1956.6,59.2377,111,242,163,453.98,1,5
"1264",9,132,1,1,1956.6,59.2377,111,242,163,142,2,4
"1265",9,132,1,2,1956.6,59.2377,111,242,163,186,3,3
"1266",9,132,1,4,1956.6,59.2377,111,242,163,340,4,2
"1267",9,132,1,2,1956.6,59.2377,111,242,163,117.6,5,1
"1268",9,133,0,4,1230.7,210,300,189,131.6394,373.91,1,3
"1269",9,133,0,3,1230.7,210,300,189,131.6394,175.15,2,2
"1270",9,133,0,1,1230.7,210,300,189,131.6394,303.51,3,1
"1271",9,134,0,3,1764.5,139.9692,260,182,92,393.95,1,5
"1272",9,134,0,1,1764.5,139.9692,260,182,92,209.76,2,4
"1273",9,134,0,4,1764.5,139.9692,260,182,92,333.98,3,3
"1274",9,134,0,3,1764.5,139.9692,260,182,92,229.9,4,2
"1275",9,134,0,1,1764.5,139.9692,260,182,92,211.3,5,1
"1276",9,135,0,2,4852.8,135.6034,192,111,73,450,1,9
"1277",9,135,0,4,4852.8,135.6034,192,111,73,443.9,2,8
"1278",9,135,0,2,4852.8,135.6034,192,111,73,572,3,7
"1279",9,135,0,1,4852.8,135.6034,192,111,73,358.1,4,6
"1280",9,135,0,2,4852.8,135.6034,192,111,73,201.6,5,5
"1281",9,135,0,3,4852.8,135.6034,192,111,73,504.3,6,4
"1282",9,135,0,4,4852.8,135.6034,192,111,73,248.2,7,3
"1283",9,135,0,1,4852.8,135.6034,192,111,73,198.6,8,2
"1284",9,135,0,2,4852.8,135.6034,192,111,73,38.8999999999999,9,1
"1285",9,136,0,3,1193.5,160,87,118,191,131.82,1,4
"1286",9,136,0,2,1193.5,160,87,118,191,240.11,2,3
"1287",9,136,0,1,1193.5,160,87,118,191,157.85,3,2
"1288",9,136,0,3,1193.5,160,87,118,191,163.4,4,1
"1289",9,137,1,4,2872.2,221.4987,110,61,166,12.11,1,7
"1290",9,137,1,1,2872.2,221.4987,110,61,166,317.92,2,6
"1291",9,137,1,4,2872.2,221.4987,110,61,166,919.9,3,5
"1292",9,137,1,1,2872.2,221.4987,110,61,166,78.1000000000001,4,4
"1293",9,137,1,3,2872.2,221.4987,110,61,166,224,5,3
"1294",9,137,1,2,2872.2,221.4987,110,61,166,227.9,6,2
"1295",9,137,1,1,2872.2,221.4987,110,61,166,69.3999999999999,7,1
"1296",9,138,1,1,1529.6,233.3288,143,55,96,199.87,1,5
"1297",9,138,1,3,1529.6,233.3288,143,55,96,222,2,4
"1298",9,138,1,1,1529.6,233.3288,143,55,96,174.09,3,3
"1299",9,138,1,2,1529.6,233.3288,143,55,96,196.22,4,2
"1300",9,138,1,4,1529.6,233.3288,143,55,96,396,5,1
"1301",9,139,1,1,1113.7,218.228,157,90,146,221.73,1,3
"1302",9,139,1,3,1113.7,218.228,157,90,146,256.33,2,2
"1303",9,139,1,2,1113.7,218.228,157,90,146,121.48,3,1
"1304",9,140,0,3,2244.3,99,59,128,180.8331,253.35,1,7
"1305",9,140,0,2,2244.3,99,59,128,180.8331,156.1,2,6
"1306",9,140,0,1,2244.3,99,59,128,180.8331,148,3,5
"1307",9,140,0,4,2244.3,99,59,128,180.8331,273.9,4,4
"1308",9,140,0,3,2244.3,99,59,128,180.8331,172,5,3
"1309",9,140,0,1,2244.3,99,59,128,180.8331,178.2,6,2
"1310",9,140,0,2,2244.3,99,59,128,180.8331,136.8,7,1
"1311",9,141,1,1,1032.4,294,226,94,144.4379,193.93,1,4
"1312",9,141,1,3,1032.4,294,226,94,144.4379,237.38,2,3
"1313",9,141,1,4,1032.4,294,226,94,144.4379,176.02,3,2
"1314",9,141,1,2,1032.4,294,226,94,144.4379,111.31,4,1
"1315",9,142,0,2,1010.3,227,295.5577,218,172,159.97,1,3
"1316",9,142,0,4,1010.3,227,295.5577,218,172,212.1,2,2
"1317",9,142,0,1,1010.3,227,295.5577,218,172,56.9999999999999,3,1
"1318",9,143,0,2,1193.1,202,286,170,127.7165,209.9,1,5
"1319",9,143,0,1,1193.1,202,286,170,127.7165,194.12,2,4
"1320",9,143,0,3,1193.1,202,286,170,127.7165,201.89,3,3
"1321",9,143,0,4,1193.1,202,286,170,127.7165,198.57,4,2
"1322",9,143,0,2,1193.1,202,286,170,127.7165,61.3000000000001,5,1
"1323",9,144,1,3,1287.8,51,84,286.1269,207,202.08,1,4
"1324",9,144,1,1,1287.8,51,84,286.1269,207,242.01,2,3
"1325",9,144,1,2,1287.8,51,84,286.1269,207,170.2,3,2
"1326",9,144,1,4,1287.8,51,84,286.1269,207,297.65,4,1
"1327",9,145,0,2,1218.6,195.7833,141,193,259,232.28,1,2
"1328",9,145,0,1,1218.6,195.7833,141,193,259,95.3999999999999,2,1
"1329",9,146,1,1,1439.2,291,141.3128,65,140,393.99,1,3
"1330",9,146,1,3,1439.2,291,141.3128,65,140,157.36,2,2
"1331",9,146,1,4,1439.2,291,141.3128,65,140,363.4,3,1
"1332",9,147,1,1,2304.6,287,215.6003,65,105,485.85,1,5
"1333",9,147,1,3,2304.6,287,215.6003,65,105,195.8,2,4
"1334",9,147,1,2,2304.6,287,215.6003,65,105,336,3,3
"1335",9,147,1,4,2304.6,287,215.6003,65,105,448.1,4,2
"1336",9,147,1,2,2304.6,287,215.6003,65,105,234,5,1
"1337",9,148,0,2,2395.3,98,202,99,47.276,297.25,1,7
"1338",9,148,0,1,2395.3,98,202,99,47.276,193.86,2,6
"1339",9,148,0,3,2395.3,98,202,99,47.276,501.82,3,5
"1340",9,148,0,4,2395.3,98,202,99,47.276,4,4,4
"1341",9,148,0,1,2395.3,98,202,99,47.276,247.9,5,3
"1342",9,148,0,3,2395.3,98,202,99,47.276,245.9,6,2
"1343",9,148,0,4,2395.3,98,202,99,47.276,49.4000000000003,7,1
"1344",9,149,1,1,2153.4,240,76,39.4254,176,626.13,1,5
"1345",9,149,1,4,2153.4,240,76,39.4254,176,404.3,2,4
"1346",9,149,1,3,2153.4,240,76,39.4254,176,226.1,3,3
"1347",9,149,1,2,2153.4,240,76,39.4254,176,469.9,4,2
"1348",9,149,1,4,2153.4,240,76,39.4254,176,2.09999999999999,5,1
"1349",9,150,1,3,1945.4,70,144,289,143.3388,225.83,1,5
"1350",9,150,1,1,1945.4,70,144,289,143.3388,203.95,2,4
"1351",9,150,1,2,1945.4,70,144,289,143.3388,192.06,3,3
"1352",9,150,1,4,1945.4,70,144,289,143.3388,474.2,4,2
"1353",9,150,1,3,1945.4,70,144,289,143.3388,247.9,5,1
"1354",9,151,1,3,1646.2,60,147.1857,244,118,241.19,1,5
"1355",9,151,1,1,1646.2,60,147.1857,244,118,1.72000000000005,2,4
"1356",9,151,1,2,1646.2,60,147.1857,244,118,195.97,3,3
"1357",9,151,1,4,1646.2,60,147.1857,244,118,258,4,2
"1358",9,151,1,3,1646.2,60,147.1857,244,118,174.7,5,1
"1359",9,152,0,3,1274.9,84,39,86.9989,160,3.91999999999998,1,3
"1360",9,152,0,2,1274.9,84,39,86.9989,160,155.29,2,2
"1361",9,152,0,4,1274.9,84,39,86.9989,160,237.2,3,1
"1362",9,153,0,4,1068.2,187,278,239,148.9983,329.26,1,3
"1363",9,153,0,3,1068.2,187,278,239,148.9983,191.94,2,2
"1364",9,153,0,1,1068.2,187,278,239,148.9983,213.06,3,1
"1365",9,154,1,3,1456.6,272,156,91,141.8237,173.86,1,4
"1366",9,154,1,1,1456.6,272,156,91,141.8237,255.96,2,3
"1367",9,154,1,2,1456.6,272,156,91,141.8237,234.01,3,2
"1368",9,154,1,4,1456.6,272,156,91,141.8237,114,4,1
"1369",9,155,1,3,3011.7,252,183,104,163.2281,180.2,1,2
"1370",9,155,1,1,3011.7,252,183,104,163.2281,212,2,1
"1371",9,156,0,4,6089.7,100.5641,204,140,58,7.82000000000005,1,14
"1372",9,156,0,3,6089.7,100.5641,204,140,58,157.8,2,13
"1373",9,156,0,4,6089.7,100.5641,204,140,58,3.99999999999978,3,12
"1374",9,156,0,2,6089.7,100.5641,204,140,58,412.1,4,11
"1375",9,156,0,4,6089.7,100.5641,204,140,58,250.2,5,10
"1376",9,156,0,3,6089.7,100.5641,204,140,58,248.3,6,9
"1377",9,156,0,1,6089.7,100.5641,204,140,58,334,7,8
"1378",9,156,0,3,6089.7,100.5641,204,140,58,830.1,8,7
"1379",9,156,0,4,6089.7,100.5641,204,140,58,244.000000000001,9,6
"1380",9,156,0,2,6089.7,100.5641,204,140,58,250,10,5
"1381",9,156,0,3,6089.7,100.5641,204,140,58,350.099999999999,11,4
"1382",9,156,0,1,6089.7,100.5641,204,140,58,186,12,3
"1383",9,156,0,2,6089.7,100.5641,204,140,58,261.8,13,2
"1384",9,156,0,4,6089.7,100.5641,204,140,58,175.999999999999,14,1
"1385",9,157,0,2,975.19,140,97,191,234.7675,259.94,1,3
"1386",9,157,0,1,975.19,140,97,191,234.7675,164.02,2,2
"1387",9,157,0,3,975.19,140,97,191,234.7675,107.2,3,1
"1388",9,158,0,4,2208.4,168,130.4938,220,280,189.89,1,5
"1389",9,158,0,2,2208.4,168,130.4938,220,280,584.08,2,4
"1390",9,158,0,1,2208.4,168,130.4938,220,280,158.2,3,3
"1391",9,158,0,3,2208.4,168,130.4938,220,280,402.2,4,2
"1392",9,158,0,4,2208.4,168,130.4938,220,280,62.8000000000002,5,1
"1393",9,159,0,3,2485.7,97.2562,47,101,179,157.82,1,6
"1394",9,159,0,2,2485.7,97.2562,47,101,179,58.38,2,5
"1395",9,159,0,1,2485.7,97.2562,47,101,179,316.15,3,4
"1396",9,159,0,3,2485.7,97.2562,47,101,179,320,4,3
"1397",9,159,0,1,2485.7,97.2562,47,101,179,236.4,5,2
"1398",9,159,0,4,2485.7,97.2562,47,101,179,280.3,6,1
"1399",9,160,1,3,6240.5,68,129,276,165.2795,139.91,1,15
"1400",9,160,1,1,6240.5,68,129,276,165.2795,156.02,2,14
"1401",9,160,1,2,6240.5,68,129,276,165.2795,164.02,3,13
"1402",9,160,1,4,6240.5,68,129,276,165.2795,434,4,12
"1403",9,160,1,2,6240.5,68,129,276,165.2795,463.9,5,11
"1404",9,160,1,3,6240.5,68,129,276,165.2795,254.1,6,10
"1405",9,160,1,4,6240.5,68,129,276,165.2795,266.1,7,9
"1406",9,160,1,2,6240.5,68,129,276,165.2795,438,8,8
"1407",9,160,1,1,6240.5,68,129,276,165.2795,443.8,9,7
"1408",9,160,1,2,6240.5,68,129,276,165.2795,182.1,10,6
"1409",9,160,1,3,6240.5,68,129,276,165.2795,345.9,11,5
"1410",9,160,1,4,6240.5,68,129,276,165.2795,492.1,12,4
"1411",9,160,1,3,6240.5,68,129,276,165.2795,454,13,3
"1412",9,160,1,4,6240.5,68,129,276,165.2795,193.899999999999,14,2
"1413",9,160,1,2,6240.5,68,129,276,165.2795,191.1,15,1
"1414",9,161,1,2,3189.3,166,213,291.1944,234,148.48,1,10
"1415",9,161,1,4,3189.3,166,213,291.1944,234,205.91,2,9
"1416",9,161,1,1,3189.3,166,213,291.1944,234,386.04,3,8
"1417",9,161,1,2,3189.3,166,213,291.1944,234,305.9,4,7
"1418",9,161,1,4,3189.3,166,213,291.1944,234,214.1,5,6
"1419",9,161,1,3,3189.3,166,213,291.1944,234,244.1,6,5
"1420",9,161,1,1,3189.3,166,213,291.1944,234,175.3,7,4
"1421",9,161,1,2,3189.3,166,213,291.1944,234,227.9,8,3
"1422",9,161,1,4,3189.3,166,213,291.1944,234,376.1,9,2
"1423",9,161,1,1,3189.3,166,213,291.1944,234,105.2,10,1
"1424",9,162,0,1,2123.4,167,232,142,84.3892,168,1,8
"1425",9,162,0,3,2123.4,167,232,142,84.3892,172.11,2,7
"1426",9,162,0,4,2123.4,167,232,142,84.3892,148.09,3,6
"1427",9,162,0,2,2123.4,167,232,142,84.3892,375.99,4,5
"1428",9,162,0,4,2123.4,167,232,142,84.3892,247.6,5,4
"1429",9,162,0,3,2123.4,167,232,142,84.3892,169.6,6,3
"1430",9,162,0,1,2123.4,167,232,142,84.3892,264.1,7,2
"1431",9,162,0,3,2123.4,167,232,142,84.3892,3.00000000000011,8,1
"1432",9,163,0,4,1810,165,248,122.3349,46,11.92,1,6
"1433",9,163,0,2,1810,165,248,122.3349,46,254.03,2,5
"1434",9,163,0,1,1810,165,248,122.3349,46,329.99,3,4
"1435",9,163,0,3,1810,165,248,122.3349,46,300.2,4,3
"1436",9,163,0,1,1810,165,248,122.3349,46,160,5,2
"1437",9,163,0,2,1810,165,248,122.3349,46,76.9,6,1
"1438",9,164,0,4,1288.1,180,285.3243,232,133,229.9,1,4
"1439",9,164,0,2,1288.1,180,285.3243,232,133,246.82,2,3
"1440",9,164,0,1,1288.1,180,285.3243,232,133,226.78,3,2
"1441",9,164,0,3,1288.1,180,285.3243,232,133,160.9,4,1
"1442",9,165,0,3,2195,121,246,195,85.1249,1.76000000000004,1,8
"1443",9,165,0,2,2195,121,246,195,85.1249,176,2,7
"1444",9,165,0,4,2195,121,246,195,85.1249,308.21,3,6
"1445",9,165,0,3,2195,121,246,195,85.1249,139.8,4,5
"1446",9,165,0,1,2195,121,246,195,85.1249,292,5,4
"1447",9,165,0,2,2195,121,246,195,85.1249,26,6,3
"1448",9,165,0,4,2195,121,246,195,85.1249,2,7,2
"1449",9,165,0,3,2195,121,246,195,85.1249,98.9999999999998,8,1
"1450",9,166,1,1,2098,240,88,35.5948,160,279.93,1,7
"1451",9,166,1,3,2098,240,88,35.5948,160,231.9,2,6
"1452",9,166,1,1,2098,240,88,35.5948,160,5.96000000000008,3,5
"1453",9,166,1,2,2098,240,88,35.5948,160,204.2,4,4
"1454",9,166,1,4,2098,240,88,35.5948,160,332.1,5,3
"1455",9,166,1,2,2098,240,88,35.5948,160,208.2,6,2
"1456",9,166,1,1,2098,240,88,35.5948,160,188.6,7,1
"1457",9,167,1,1,2845.5,31,71,131,70.9055,245.84,1,8
"1458",9,167,1,3,2845.5,31,71,131,70.9055,801.9,2,7
"1459",9,167,1,2,2845.5,31,71,131,70.9055,265.3,3,6
"1460",9,167,1,4,2845.5,31,71,131,70.9055,9.50000000000006,4,5
"1461",9,167,1,3,2845.5,31,71,131,70.9055,151.9,5,4
"1462",9,167,1,2,2845.5,31,71,131,70.9055,222,6,3
"1463",9,167,1,4,2845.5,31,71,131,70.9055,22.1,7,2
"1464",9,167,1,3,2845.5,31,71,131,70.9055,40.8999999999997,8,1
"1465",9,168,0,4,1969.5,187,252,150,103.3534,227.82,1,7
"1466",9,168,0,2,1969.5,187,252,150,103.3534,272.1,2,6
"1467",9,168,0,1,1969.5,187,252,150,103.3534,215.98,3,5
"1468",9,168,0,3,1969.5,187,252,150,103.3534,251.9,4,4
"1469",9,168,0,4,1969.5,187,252,150,103.3534,190.7,5,3
"1470",9,168,0,1,1969.5,187,252,150,103.3534,239,6,2
"1471",9,168,0,3,1969.5,187,252,150,103.3534,7.79999999999981,7,1
"1472",9,169,1,3,1065.2,88,157.0719,225,145,181.93,1,3
"1473",9,169,1,1,1065.2,88,157.0719,225,145,239.93,2,2
"1474",9,169,1,2,1065.2,88,157.0719,225,145,38.9999999999999,3,1
"1475",9,171,1,2,2946.3,254,137.5998,97,203,393.4,1,4
"1476",9,171,1,1,2946.3,254,137.5998,97,203,350.1,2,3
"1477",9,171,1,3,2946.3,254,137.5998,97,203,189.9,3,2
"1478",9,171,1,4,2946.3,254,137.5998,97,203,816.6,4,1
"1479",9,172,0,3,1678.4,109,45.981,89,284,475.9,1,1
"1480",9,173,0,3,1825.9,163,90.4721,155,268,1.75999999999998,1,6
"1481",9,173,0,1,1825.9,163,90.4721,155,268,140.1,2,5
"1482",9,173,0,2,1825.9,163,90.4721,155,268,212.07,3,4
"1483",9,173,0,4,1825.9,163,90.4721,155,268,68.1000000000001,4,3
"1484",9,173,0,3,1825.9,163,90.4721,155,268,174,5,2
"1485",9,173,0,1,1825.9,163,90.4721,155,268,18.6000000000002,6,1
"1486",9,174,1,1,1371.9,163.89,122,66,110,181.89,1,5
"1487",9,174,1,3,1371.9,163.89,122,66,110,300.01,2,4
"1488",9,174,1,1,1371.9,163.89,122,66,110,196.04,3,3
"1489",9,174,1,2,1371.9,163.89,122,66,110,165.9,4,2
"1490",9,174,1,4,1371.9,163.89,122,66,110,14.2,5,1
"1491",9,175,1,1,1483.4,148,216.7223,298,204,189.98,1,5
"1492",9,175,1,2,1483.4,148,216.7223,298,204,189.98,2,4
"1493",9,175,1,4,1483.4,148,216.7223,298,204,181.76,3,3
"1494",9,175,1,3,1483.4,148,216.7223,298,204,223.9,4,2
"1495",9,175,1,1,1483.4,148,216.7223,298,204,114.9,5,1
"1496",9,176,1,1,890.2,287,135,77.9836,210,145.96,1,2
"1497",9,176,1,3,890.2,287,135,77.9836,210,192.14,2,1
"1498",9,177,1,3,853.14,269,200.5645,115,155,195.94,1,2
"1499",9,177,1,1,853.14,269,200.5645,115,155,197.9,2,1
"1500",9,178,0,3,1035.5,183,128,167.8223,235,183.74,1,4
"1501",9,178,0,4,1035.5,183,128,167.8223,235,194.06,2,3
"1502",9,178,0,2,1035.5,183,128,167.8223,235,172.02,3,2
"1503",9,178,0,1,1035.5,183,128,167.8223,235,142.76,4,1
"1504",9,179,1,3,790.2,271,205.7561,139,214,140.03,1,2
"1505",9,179,1,1,790.2,271,205.7561,139,214,186.7,2,1
"1506",9,180,1,3,654.32,103,176,287.1928,173,129.92,1,2
"1507",9,180,1,1,654.32,103,176,287.1928,173,196.92,2,1
"1508",9,181,0,3,802.29,190.0531,118,161,242,171.89,1,3
"1509",9,181,0,1,802.29,190.0531,118,161,242,13.9899999999999,2,2
"1510",9,181,0,2,802.29,190.0531,118,161,242,110.74,3,1
"1511",9,182,1,3,825,244,155.1241,90,170,211.95,1,1
"1512",9,183,0,3,1030.3,221.9482,272,232,189,45.85,1,4
"1513",9,183,0,1,1030.3,221.9482,272,232,189,247.93,2,3
"1514",9,183,0,4,1030.3,221.9482,272,232,189,247.97,3,2
"1515",9,183,0,2,1030.3,221.9482,272,232,189,12.6999999999999,4,1
"1516",9,184,0,3,1113.6,139.2965,90,192,267,1.91999999999998,1,4
"1517",9,184,0,1,1113.6,139.2965,90,192,267,346.05,2,3
"1518",9,184,0,3,1113.6,139.2965,90,192,267,151.93,3,2
"1519",9,184,0,2,1113.6,139.2965,90,192,267,35.3999999999999,4,1
"1520",9,185,0,4,1807.7,126,58,93,160.1078,3.71999999999995,1,5
"1521",9,185,0,2,1807.7,126,58,93,160.1078,127.96,2,4
"1522",9,185,0,4,1807.7,126,58,93,160.1078,157.9,3,3
"1523",9,185,0,3,1807.7,126,58,93,160.1078,214.1,4,2
"1524",9,185,0,1,1807.7,126,58,93,160.1078,50.6,5,1
"1525",9,186,0,4,1951.2,180,232,112,59.5354,291.94,1,5
"1526",9,186,0,2,1951.2,180,232,112,59.5354,387.91,2,4
"1527",9,186,0,1,1951.2,180,232,112,59.5354,218,3,3
"1528",9,186,0,3,1951.2,180,232,112,59.5354,288.1,4,2
"1529",9,186,0,4,1951.2,180,232,112,59.5354,134,5,1
"1530",9,187,1,1,1012.3,297,221,161,228.7713,213.98,1,3
"1531",9,187,1,3,1012.3,297,221,161,228.7713,282.19,2,2
"1532",9,187,1,4,1012.3,297,221,161,228.7713,62.53,3,1
"1533",9,188,1,3,3299.1,285,86,42.3622,217,178.45,1,8
"1534",9,188,1,4,3299.1,285,86,42.3622,217,255.9,2,7
"1535",9,188,1,2,3299.1,285,86,42.3622,217,186,3,6
"1536",9,188,1,4,3299.1,285,86,42.3622,217,206.1,4,5
"1537",9,188,1,1,3299.1,285,86,42.3622,217,258,5,4
"1538",9,188,1,2,3299.1,285,86,42.3622,217,636,6,3
"1539",9,188,1,3,3299.1,285,86,42.3622,217,225.9,7,2
"1540",9,188,1,4,3299.1,285,86,42.3622,217,2.00000000000022,8,1
"1541",9,189,1,1,1450.4,218.5599,86,32,185,376.21,1,3
"1542",9,189,1,2,1450.4,218.5599,86,32,185,359.83,2,2
"1543",9,189,1,4,1450.4,218.5599,86,32,185,98.4999999999998,3,1
"1544",9,190,1,3,1991.2,39.3272,87,235,167,147.81,1,4
"1545",9,190,1,1,1991.2,39.3272,87,235,167,73.3999999999999,2,3
"1546",9,190,1,2,1991.2,39.3272,87,235,167,176.2,3,2
"1547",9,190,1,4,1991.2,39.3272,87,235,167,238.5,4,1
"1548",9,191,1,3,1415.9,68.4697,173,266,119,319.64,1,5
"1549",9,191,1,4,1415.9,68.4697,173,266,119,30.07,2,4
"1550",9,191,1,2,1415.9,68.4697,173,266,119,5.85000000000002,3,3
"1551",9,191,1,1,1415.9,68.4697,173,266,119,138,4,2
"1552",9,191,1,4,1415.9,68.4697,173,266,119,90.7,5,1
"1553",9,192,1,2,2221.4,253.2167,187,113,168,267.89,1,5
"1554",9,192,1,1,2221.4,253.2167,187,113,168,416.2,2,4
"1555",9,192,1,3,2221.4,253.2167,187,113,168,196.2,3,3
"1556",9,192,1,4,2221.4,253.2167,187,113,168,272.1,4,2
"1557",9,192,1,1,2221.4,253.2167,187,113,168,264.6,5,1
"1558",9,193,0,3,2134.6,134.2821,257,204,102,215.88,1,8
"1559",9,193,0,1,2134.6,134.2821,257,204,102,87.9500000000001,2,7
"1560",9,193,0,2,2134.6,134.2821,257,204,102,267.72,3,6
"1561",9,193,0,1,2134.6,134.2821,257,204,102,183.95,4,5
"1562",9,193,0,3,2134.6,134.2821,257,204,102,214,5,4
"1563",9,193,0,4,2134.6,134.2821,257,204,102,100.2,6,3
"1564",9,193,0,1,2134.6,134.2821,257,204,102,202.3,7,2
"1565",9,193,0,4,2134.6,134.2821,257,204,102,267.8,8,1
"1566",9,194,1,1,2608.5,74,130.8935,252,143,264,1,7
"1567",9,194,1,2,2608.5,74,130.8935,252,143,315.49,2,6
"1568",9,194,1,3,2608.5,74,130.8935,252,143,264.07,3,5
"1569",9,194,1,4,2608.5,74,130.8935,252,143,309.9,4,4
"1570",9,194,1,2,2608.5,74,130.8935,252,143,6.00000000000001,5,3
"1571",9,194,1,1,2608.5,74,130.8935,252,143,169.9,6,2
"1572",9,194,1,3,2608.5,74,130.8935,252,143,207.5,7,1
"1573",9,195,1,3,2280,80,39.5088,121,191,187.8,1,4
"1574",9,195,1,2,2280,80,39.5088,121,191,242.01,2,3
"1575",9,195,1,3,2280,80,39.5088,121,191,1161.4,3,2
"1576",9,195,1,4,2280,80,39.5088,121,191,82.5,4,1
"1577",9,196,0,3,4746.9,89,294,152,38.3472,171.9,1,10
"1578",9,196,0,4,4746.9,89,294,152,38.3472,310,2,9
"1579",9,196,0,3,4746.9,89,294,152,38.3472,773,3,8
"1580",9,196,0,1,4746.9,89,294,152,38.3472,256,4,7
"1581",9,196,0,2,4746.9,89,294,152,38.3472,222,5,6
"1582",9,196,0,4,4746.9,89,294,152,38.3472,75.8999999999999,6,5
"1583",9,196,0,3,4746.9,89,294,152,38.3472,102.1,7,4
"1584",9,196,0,4,4746.9,89,294,152,38.3472,6.00000000000023,8,3
"1585",9,196,0,2,4746.9,89,294,152,38.3472,785.9,9,2
"1586",9,196,0,4,4746.9,89,294,152,38.3472,128.7,10,1
"1587",9,197,1,3,1107,296,241.0683,204,251,301.92,1,3
"1588",9,197,1,1,1107,296,241.0683,204,251,148.02,2,2
"1589",9,197,1,2,1107,296,241.0683,204,251,260.01,3,1
"1590",9,198,0,4,2203,126,248,191,89.8811,121.06,1,6
"1591",9,198,0,2,2203,126,248,191,89.8811,244.43,2,5
"1592",9,198,0,4,2203,126,248,191,89.8811,4.09999999999999,3,4
"1593",9,198,0,3,2203,126,248,191,89.8811,242,4,3
"1594",9,198,0,1,2203,126,248,191,89.8811,451.9,5,2
"1595",9,198,0,4,2203,126,248,191,89.8811,194.6,6,1
"1596",9,199,0,4,2455.6,139,80,184,267.2589,201.92,1,5
"1597",9,199,0,1,2455.6,139,80,184,267.2589,116.6,2,4
"1598",9,199,0,3,2455.6,139,80,184,267.2589,394.1,3,3
"1599",9,199,0,2,2455.6,139,80,184,267.2589,192.1,4,2
"1600",9,199,0,1,2455.6,139,80,184,267.2589,90.3,5,1
"1601",9,200,1,2,4477,204,41,79.997,272,309.77,1,6
"1602",9,200,1,1,4477,204,41,79.997,272,313.93,2,5
"1603",9,200,1,3,4477,204,41,79.997,272,763,3,4
"1604",9,200,1,1,4477,204,41,79.997,272,786,4,3
"1605",9,200,1,3,4477,204,41,79.997,272,429.8,5,2
"1606",9,200,1,4,4477,204,41,79.997,272,644.2,6,1
"1607",10,1,1,1,6939.2,132.4739,243,107,32,141.54,1,10
"1608",10,1,1,2,6939.2,132.4739,243,107,32,222.02,2,9
"1609",10,1,1,4,6939.2,132.4739,243,107,32,276.05,3,8
"1610",10,1,1,2,6939.2,132.4739,243,107,32,1612.08,4,7
"1611",10,1,1,1,6939.2,132.4739,243,107,32,904.2,5,6
"1612",10,1,1,3,6939.2,132.4739,243,107,32,511.6,6,5
"1613",10,1,1,1,6939.2,132.4739,243,107,32,1702.1,7,4
"1614",10,1,1,2,6939.2,132.4739,243,107,32,775.5,8,3
"1615",10,1,1,4,6939.2,132.4739,243,107,32,1.80000000000025,9,2
"1616",10,1,1,1,6939.2,132.4739,243,107,32,183.1,10,1
"1617",10,2,0,1,2827.9,230,152.6308,116,182,191.98,1,8
"1618",10,2,0,2,2827.9,230,152.6308,116,182,270.1,2,7
"1619",10,2,0,4,2827.9,230,152.6308,116,182,425.25,3,6
"1620",10,2,0,2,2827.9,230,152.6308,116,182,233.7,4,5
"1621",10,2,0,4,2827.9,230,152.6308,116,182,236,5,4
"1622",10,2,0,3,2827.9,230,152.6308,116,182,261.2,6,3
"1623",10,2,0,1,2827.9,230,152.6308,116,182,483.8,7,2
"1624",10,2,0,2,2827.9,230,152.6308,116,182,352.5,8,1
"1625",10,3,0,1,4145.9,217.4678,170,205,262,217.71,1,11
"1626",10,3,0,2,4145.9,217.4678,170,205,262,261.89,2,10
"1627",10,3,0,4,4145.9,217.4678,170,205,262,180.1,3,9
"1628",10,3,0,3,4145.9,217.4678,170,205,262,206.03,4,8
"1629",10,3,0,4,4145.9,217.4678,170,205,262,272,5,7
"1630",10,3,0,2,4145.9,217.4678,170,205,262,472.2,6,6
"1631",10,3,0,4,4145.9,217.4678,170,205,262,656.1,7,5
"1632",10,3,0,2,4145.9,217.4678,170,205,262,290.1,8,4
"1633",10,3,0,1,4145.9,217.4678,170,205,262,420,9,3
"1634",10,3,0,3,4145.9,217.4678,170,205,262,470,10,2
"1635",10,3,0,4,4145.9,217.4678,170,205,262,230.3,11,1
"1636",10,4,0,2,2562.2,32,185,218.5599,86,386.27,1,5
"1637",10,4,0,4,2562.2,32,185,218.5599,86,204.44,2,4
"1638",10,4,0,3,2562.2,32,185,218.5599,86,425.9,3,3
"1639",10,4,0,4,2562.2,32,185,218.5599,86,198.2,4,2
"1640",10,4,0,2,2562.2,32,185,218.5599,86,756.6,5,1
"1641",10,5,1,1,2324.5,295.5577,218,172,227,509.84,1,3
"1642",10,5,1,3,2324.5,295.5577,218,172,227,412.04,2,2
"1643",10,5,1,1,2324.5,295.5577,218,172,227,654,3,1
"1644",10,6,0,1,1373.5,150,286,131.0204,46,271.827,1,4
"1645",10,6,0,2,1373.5,150,286,131.0204,46,436.02,2,3
"1646",10,6,0,4,1373.5,150,286,131.0204,46,243.93,3,2
"1647",10,6,0,2,1373.5,150,286,131.0204,46,356.2,4,1
"1648",10,7,0,1,2918.1,100.5641,58,140,204,223.85,1,11
"1649",10,7,0,2,2918.1,100.5641,58,140,204,144.07,2,10
"1650",10,7,0,4,2918.1,100.5641,58,140,204,278.09,3,9
"1651",10,7,0,3,2918.1,100.5641,58,140,204,362.01,4,8
"1652",10,7,0,4,2918.1,100.5641,58,140,204,144.2,5,7
"1653",10,7,0,2,2918.1,100.5641,58,140,204,246.2,6,6
"1654",10,7,0,1,2918.1,100.5641,58,140,204,296.1,7,5
"1655",10,7,0,3,2918.1,100.5641,58,140,204,2.09999999999999,8,4
"1656",10,7,0,1,2918.1,100.5641,58,140,204,152,9,3
"1657",10,7,0,3,2918.1,100.5641,58,140,204,263.8,10,2
"1658",10,7,0,4,2918.1,100.5641,58,140,204,300.1,11,1
"1659",10,8,0,1,4489.8,139,86,179.7826,238,386.318,1,11
"1660",10,8,0,2,4489.8,139,86,179.7826,238,178.3,2,10
"1661",10,8,0,4,4489.8,139,86,179.7826,238,484.02,3,9
"1662",10,8,0,2,4489.8,139,86,179.7826,238,347.9,4,8
"1663",10,8,0,4,4489.8,139,86,179.7826,238,936.3,5,7
"1664",10,8,0,3,4489.8,139,86,179.7826,238,270.1,6,6
"1665",10,8,0,2,4489.8,139,86,179.7826,238,541.5,7,5
"1666",10,8,0,1,4489.8,139,86,179.7826,238,246,8,4
"1667",10,8,0,3,4489.8,139,86,179.7826,238,306.5,9,3
"1668",10,8,0,4,4489.8,139,86,179.7826,238,376,10,2
"1669",10,8,0,3,4489.8,139,86,179.7826,238,30.5,11,1
"1670",10,9,0,1,5995,68.4697,173,266,119,77.82,1,17
"1671",10,9,0,2,5995,68.4697,173,266,119,276.84,2,16
"1672",10,9,0,4,5995,68.4697,173,266,119,170.72,3,15
"1673",10,9,0,2,5995,68.4697,173,266,119,589.87,4,14
"1674",10,9,0,1,5995,68.4697,173,266,119,16,5,13
"1675",10,9,0,3,5995,68.4697,173,266,119,111.9,6,12
"1676",10,9,0,1,5995,68.4697,173,266,119,5.90000000000002,7,11
"1677",10,9,0,4,5995,68.4697,173,266,119,617.9,8,10
"1678",10,9,0,3,5995,68.4697,173,266,119,463.7,9,9
"1679",10,9,0,1,5995,68.4697,173,266,119,624.3,10,8
"1680",10,9,0,3,5995,68.4697,173,266,119,264,11,7
"1681",10,9,0,1,5995,68.4697,173,266,119,139.799999999999,12,6
"1682",10,9,0,2,5995,68.4697,173,266,119,244.2,13,5
"1683",10,9,0,4,5995,68.4697,173,266,119,690,14,4
"1684",10,9,0,2,5995,68.4697,173,266,119,394.1,15,3
"1685",10,9,0,4,5995,68.4697,173,266,119,126,16,2
"1686",10,9,0,2,5995,68.4697,173,266,119,135.8,17,1
"1687",10,10,0,1,7315,148,216.7223,298,204,412.63,1,13
"1688",10,10,0,2,7315,148,216.7223,298,204,165.93,2,12
"1689",10,10,0,3,7315,148,216.7223,298,204,1702.23,3,11
"1690",10,10,0,1,7315,148,216.7223,298,204,807.8,4,10
"1691",10,10,0,2,7315,148,216.7223,298,204,345.9,5,9
"1692",10,10,0,4,7315,148,216.7223,298,204,515.299999999999,6,8
"1693",10,10,0,2,7315,148,216.7223,298,204,502.1,7,7
"1694",10,10,0,1,7315,148,216.7223,298,204,399.7,8,6
"1695",10,10,0,2,7315,148,216.7223,298,204,435.9,9,5
"1696",10,10,0,4,7315,148,216.7223,298,204,150.1,10,4
"1697",10,10,0,2,7315,148,216.7223,298,204,278.099999999999,11,3
"1698",10,10,0,4,7315,148,216.7223,298,204,746.1,12,2
"1699",10,10,0,3,7315,148,216.7223,298,204,415.900000000001,13,1
"1700",10,11,1,1,3805.9,237,276.708,192,160,190,1,9
"1701",10,11,1,2,3805.9,237,276.708,192,160,238.68,2,8
"1702",10,11,1,4,3805.9,237,276.708,192,160,462.06,3,7
"1703",10,11,1,3,3805.9,237,276.708,192,160,332,4,6
"1704",10,11,1,1,3805.9,237,276.708,192,160,433.4,5,5
"1705",10,11,1,3,3805.9,237,276.708,192,160,453.9,6,4
"1706",10,11,1,1,3805.9,237,276.708,192,160,477.9,7,3
"1707",10,11,1,3,3805.9,237,276.708,192,160,383.6,8,2
"1708",10,11,1,4,3805.9,237,276.708,192,160,250,9,1
"1709",10,12,0,1,3724.7,147.1857,60,118,244,43.701,1,9
"1710",10,12,0,2,3724.7,147.1857,60,118,244,238.03,2,8
"1711",10,12,0,4,3724.7,147.1857,60,118,244,524.05,3,7
"1712",10,12,0,3,3724.7,147.1857,60,118,244,518,4,6
"1713",10,12,0,1,3724.7,147.1857,60,118,244,438,5,5
"1714",10,12,0,2,3724.7,147.1857,60,118,244,464.1,6,4
"1715",10,12,0,4,3724.7,147.1857,60,118,244,560.1,7,3
"1716",10,12,0,3,3724.7,147.1857,60,118,244,288,8,2
"1717",10,12,0,4,3724.7,147.1857,60,118,244,64.4999999999998,9,1
"1718",10,13,1,1,2994.6,265.1475,222,182,226,411.73,1,7
"1719",10,13,1,2,2994.6,265.1475,222,182,226,600.2,2,6
"1720",10,13,1,1,2994.6,265.1475,222,182,226,199.6,3,5
"1721",10,13,1,2,2994.6,265.1475,222,182,226,406,4,4
"1722",10,13,1,3,2994.6,265.1475,222,182,226,474.1,5,3
"1723",10,13,1,4,2994.6,265.1475,222,182,226,441.4,6,2
"1724",10,13,1,1,2994.6,265.1475,222,182,226,126.3,7,1
"1725",10,14,0,1,4671.3,285.3243,232,133,180,387.86,1,9
"1726",10,14,0,2,4671.3,285.3243,232,133,180,450.71,2,8
"1727",10,14,0,3,4671.3,285.3243,232,133,180,14.1,3,7
"1728",10,14,0,1,4671.3,285.3243,232,133,180,423.2,4,6
"1729",10,14,0,2,4671.3,285.3243,232,133,180,432.7,5,5
"1730",10,14,0,1,4671.3,285.3243,232,133,180,308,6,4
"1731",10,14,0,3,4671.3,285.3243,232,133,180,910.3,7,3
"1732",10,14,0,4,4671.3,285.3243,232,133,180,294.2,8,2
"1733",10,14,0,2,4671.3,285.3243,232,133,180,686.199999999999,9,1
"1734",10,15,1,1,3243.3,248,212,165.38,196,386.556,1,5
"1735",10,15,1,2,3243.3,248,212,165.38,196,940.29,2,4
"1736",10,15,1,4,3243.3,248,212,165.38,196,402,3,3
"1737",10,15,1,3,3243.3,248,212,165.38,196,374.1,4,2
"1738",10,15,1,1,3243.3,248,212,165.38,196,254,5,1
"1739",10,16,0,1,3130.1,192,135.6034,73,111,259.83,1,6
"1740",10,16,0,2,3130.1,192,135.6034,73,111,953.97,2,5
"1741",10,16,0,1,3130.1,192,135.6034,73,111,511.9,3,4
"1742",10,16,0,3,3130.1,192,135.6034,73,111,428,4,3
"1743",10,16,0,4,3130.1,192,135.6034,73,111,283.9,5,2
"1744",10,16,0,2,3130.1,192,135.6034,73,111,104.1,6,1
"1745",10,17,0,1,2433.1,179,97.2562,47,101,24.046,1,6
"1746",10,17,0,3,2433.1,179,97.2562,47,101,17.2,2,5
"1747",10,17,0,4,2433.1,179,97.2562,47,101,16,3,4
"1748",10,17,0,2,2433.1,179,97.2562,47,101,225.3,4,3
"1749",10,17,0,1,2433.1,179,97.2562,47,101,434.7,5,2
"1750",10,17,0,2,2433.1,179,97.2562,47,101,342.4,6,1
"1751",10,18,1,1,5895,178,93,190,283.1057,149.97,1,12
"1752",10,18,1,2,5895,178,93,190,283.1057,234.34,2,11
"1753",10,18,1,4,5895,178,93,190,283.1057,412.13,3,10
"1754",10,18,1,3,5895,178,93,190,283.1057,198.4,4,9
"1755",10,18,1,4,5895,178,93,190,283.1057,1.90000000000001,5,8
"1756",10,18,1,1,5895,178,93,190,283.1057,442.9,6,7
"1757",10,18,1,2,5895,178,93,190,283.1057,431.9,7,6
"1758",10,18,1,4,5895,178,93,190,283.1057,1796.2,8,5
"1759",10,18,1,2,5895,178,93,190,283.1057,6.09999999999999,9,4
"1760",10,18,1,4,5895,178,93,190,283.1057,130.100000000001,10,3
"1761",10,18,1,2,5895,178,93,190,283.1057,280.2,11,2
"1762",10,18,1,3,5895,178,93,190,283.1057,250.1,12,1
"1763",10,19,1,3,3654.2,285,217,42.3622,86,109.87,1,10
"1764",10,19,1,1,3654.2,285,217,42.3622,86,311.08,2,9
"1765",10,19,1,2,3654.2,285,217,42.3622,86,331.99,3,8
"1766",10,19,1,4,3654.2,285,217,42.3622,86,297.83,4,7
"1767",10,19,1,3,3654.2,285,217,42.3622,86,470.2,5,6
"1768",10,19,1,1,3654.2,285,217,42.3622,86,200.2,6,5
"1769",10,19,1,3,3654.2,285,217,42.3622,86,240,7,4
"1770",10,19,1,4,3654.2,285,217,42.3622,86,654,8,3
"1771",10,19,1,2,3654.2,285,217,42.3622,86,278.2,9,2
"1772",10,19,1,1,3654.2,285,217,42.3622,86,144,10,1
"1773",10,20,0,1,1569.5,293,252,177.1271,209,181.78,1,4
"1774",10,20,0,2,1569.5,293,252,177.1271,209,308.02,2,3
"1775",10,20,0,4,1569.5,293,252,177.1271,209,586.15,3,2
"1776",10,20,0,2,1569.5,293,252,177.1271,209,230,4,1
"1777",10,21,1,1,8041.1,176,113,165,242.5782,164,1,15
"1778",10,21,1,2,8041.1,176,113,165,242.5782,217.85,2,14
"1779",10,21,1,4,8041.1,176,113,165,242.5782,117.87,3,13
"1780",10,21,1,2,8041.1,176,113,165,242.5782,187.49,4,12
"1781",10,21,1,1,8041.1,176,113,165,242.5782,89.7999999999999,5,11
"1782",10,21,1,4,8041.1,176,113,165,242.5782,384.8,6,10
"1783",10,21,1,3,8041.1,176,113,165,242.5782,618,7,9
"1784",10,21,1,1,8041.1,176,113,165,242.5782,618.1,8,8
"1785",10,21,1,2,8041.1,176,113,165,242.5782,658,9,7
"1786",10,21,1,4,8041.1,176,113,165,242.5782,421.9,10,6
"1787",10,21,1,3,8041.1,176,113,165,242.5782,198.1,11,5
"1788",10,21,1,4,8041.1,176,113,165,242.5782,544,12,4
"1789",10,21,1,2,8041.1,176,113,165,242.5782,450,13,3
"1790",10,21,1,4,8041.1,176,113,165,242.5782,1470.6,14,2
"1791",10,21,1,1,8041.1,176,113,165,242.5782,382.2,15,1
"1792",10,22,1,1,6333.7,150,252,187,103.3534,104.1,1,11
"1793",10,22,1,2,6333.7,150,252,187,103.3534,253.41,2,10
"1794",10,22,1,4,6333.7,150,252,187,103.3534,588.08,3,9
"1795",10,22,1,3,6333.7,150,252,187,103.3534,275.9,4,8
"1796",10,22,1,1,6333.7,150,252,187,103.3534,251.9,5,7
"1797",10,22,1,2,6333.7,150,252,187,103.3534,259.9,6,6
"1798",10,22,1,4,6333.7,150,252,187,103.3534,674.1,7,5
"1799",10,22,1,3,6333.7,150,252,187,103.3534,3.80000000000003,8,4
"1800",10,22,1,1,6333.7,150,252,187,103.3534,370,9,3
"1801",10,22,1,4,6333.7,150,252,187,103.3534,350.000000000001,10,2
"1802",10,22,1,3,6333.7,150,252,187,103.3534,24,11,1
"1803",10,23,0,1,3587.9,245,160.2041,76,130,17.81,1,7
"1804",10,23,0,2,3587.9,245,160.2041,76,130,208.04,2,6
"1805",10,23,0,4,3587.9,245,160.2041,76,130,514.03,3,5
"1806",10,23,0,1,3587.9,245,160.2041,76,130,248.2,4,4
"1807",10,23,0,2,3587.9,245,160.2041,76,130,592,5,3
"1808",10,23,0,4,3587.9,245,160.2041,76,130,298,6,2
"1809",10,23,0,2,3587.9,245,160.2041,76,130,261.9,7,1
"1810",10,24,0,1,5371.4,294,144.4379,94,226,287.96,1,11
"1811",10,24,0,2,5371.4,294,144.4379,94,226,381.92,2,10
"1812",10,24,0,4,5371.4,294,144.4379,94,226,1059.91,3,9
"1813",10,24,0,2,5371.4,294,144.4379,94,226,488.2,4,8
"1814",10,24,0,3,5371.4,294,144.4379,94,226,706.4,5,7
"1815",10,24,0,1,5371.4,294,144.4379,94,226,552,6,6
"1816",10,24,0,2,5371.4,294,144.4379,94,226,188.1,7,5
"1817",10,24,0,4,5371.4,294,144.4379,94,226,170.2,8,4
"1818",10,24,0,2,5371.4,294,144.4379,94,226,214.1,9,3
"1819",10,24,0,3,5371.4,294,144.4379,94,226,255.4,10,2
"1820",10,24,0,4,5371.4,294,144.4379,94,226,672.1,11,1
"1821",10,25,1,1,4677.4,173.8065,224,167,120,295.91,1,9
"1822",10,25,1,2,4677.4,173.8065,224,167,120,519.94,2,8
"1823",10,25,1,1,4677.4,173.8065,224,167,120,182,3,7
"1824",10,25,1,4,4677.4,173.8065,224,167,120,450,4,6
"1825",10,25,1,3,4677.4,173.8065,224,167,120,186.1,5,5
"1826",10,25,1,1,4677.4,173.8065,224,167,120,460.1,6,4
"1827",10,25,1,3,4677.4,173.8065,224,167,120,216.2,7,3
