V1,subj,rt,choice,upleftval,uprightval,downleftval,downrightval,roi,fixdur,fixnum,revfixnum,trial
43,101,4200,0,6,8,9,2,1,1219,1,4,1
44,101,4200,0,6,8,9,2,2,1478,2,3,1
45,101,4200,0,6,8,9,2,1,624,3,2,1
46,101,4200,0,6,8,9,2,2,353,4,1,1
203,101,1355,1,9,2,2,6,1,323,1,3,2
204,101,1355,1,9,2,2,6,2,388,2,2,2
205,101,1355,1,9,2,2,6,1,211,3,1,2
292,101,930,1,9,5,3,6,1,679,1,1,3
629,101,6526,1,7,5,4,6,1,700,1,6,4
630,101,6526,1,7,5,4,6,2,1809,2,5,4
631,101,6526,1,7,5,4,6,1,1113,3,4,4
632,101,6526,1,7,5,4,6,3,352,4,3,4
633,101,6526,1,7,5,4,6,2,822,5,2,4
634,101,6526,1,7,5,4,6,1,674,6,1,4
675,101,2779,1,7,6,7,4,1,957,1,3,5
676,101,2779,1,7,6,7,4,2,817,2,2,5
677,101,2779,1,7,6,7,4,1,457,3,1,5
834,101,2139,1,6,6,9,3,1,408,1,3,6
835,101,2139,1,6,6,9,3,2,566,2,2,6
836,101,2139,1,6,6,9,3,1,732,3,1,6
878,101,6924,1,6,5,7,3,1,1977,1,7,7
879,101,6924,1,6,5,7,3,2,786,2,6,7
880,101,6924,1,6,5,7,3,1,1381,3,5,7
881,101,6924,1,6,5,7,3,3,337,4,4,7
882,101,6924,1,6,5,7,3,4,690,5,3,7
883,101,6924,1,6,5,7,3,2,182,6,2,7
884,101,6924,1,6,5,7,3,1,438,7,1,7
1202,101,1214,1,9,5,2,6,1,244,1,3,8
1203,101,1214,1,9,5,2,6,2,419,2,2,8
1204,101,1214,1,9,5,2,6,1,154,3,1,8
1293,101,6062,1,6,9,8,3,1,609,1,7,9
1294,101,6062,1,6,9,8,3,2,1348,2,6,9
1295,101,6062,1,6,9,8,3,1,1269,3,5,9
1296,101,6062,1,6,9,8,3,3,342,4,4,9
1297,101,6062,1,6,9,8,3,4,412,5,3,9
1298,101,6062,1,6,9,8,3,2,776,6,2,9
1299,101,6062,1,6,9,8,3,1,365,7,1,9
1365,101,2600,0,2,7,2,8,1,497,1,4,10
1366,101,2600,0,2,7,2,8,2,771,2,3,10
1367,101,2600,0,2,7,2,8,1,531,3,2,10
1368,101,2600,0,2,7,2,8,2,236,4,1,10
1413,101,1469,0,6,7,9,3,1,502,1,2,11
1414,101,1469,0,6,7,9,3,2,627,2,1,11
1692,101,1287,0,5,9,7,3,1,391,1,2,12
1693,101,1287,0,5,9,7,3,2,570,2,1,12
1743,101,1137,0,5,9,6,2,1,473,1,2,13
1744,101,1137,0,5,9,6,2,2,356,2,1,13
2261,101,7128,1,9,8,6,2,1,512,1,7,14
2262,101,7128,1,9,8,6,2,2,552,2,6,14
2263,101,7128,1,9,8,6,2,1,1081,3,5,14
2264,101,7128,1,9,8,6,2,3,280,4,4,14
2265,101,7128,1,9,8,6,2,4,566,5,3,14
2266,101,7128,1,9,8,6,2,2,1346,6,2,14
2267,101,7128,1,9,8,6,2,1,1619,7,1,14
2386,101,2093,1,7,5,7,3,1,619,1,3,15
2387,101,2093,1,7,5,7,3,2,480,2,2,15
2388,101,2093,1,7,5,7,3,1,535,3,1,15
2561,101,3685,0,7,9,8,3,1,445,1,3,16
2562,101,3685,0,7,9,8,3,2,2598,2,2,16
2563,101,3685,0,7,9,8,3,1,122,3,1,16
2836,101,2121,1,9,5,2,6,1,273,1,3,17
2837,101,2121,1,9,5,2,6,2,984,2,2,17
2838,101,2121,1,9,5,2,6,1,408,3,1,17
2893,101,2865,1,9,2,4,6,1,401,1,3,18
2894,101,2865,1,9,2,4,6,2,1438,2,2,18
2895,101,2865,1,9,2,4,6,1,487,3,1,18
2968,101,1782,1,7,9,7,3,1,636,1,3,19
2969,101,1782,1,7,9,7,3,2,496,2,2,19
2970,101,1782,1,7,9,7,3,1,218,3,1,19
3026,101,1306,1,9,2,2,7,1,214,1,3,20
3027,101,1306,1,9,2,2,7,2,468,2,2,20
3028,101,1306,1,9,2,2,7,1,207,3,1,20
3069,101,8230,1,2,1,3,9,1,500,1,8,21
3070,101,8230,1,2,1,3,9,2,817,2,7,21
3071,101,8230,1,2,1,3,9,1,1827,3,6,21
3072,101,8230,1,2,1,3,9,2,1029,4,5,21
3073,101,8230,1,2,1,3,9,4,507,5,4,21
3074,101,8230,1,2,1,3,9,3,645,6,3,21
3075,101,8230,1,2,1,3,9,1,851,7,2,21
3076,101,8230,1,2,1,3,9,2,726,8,1,21
3252,101,1823,0,7,9,4,6,1,566,1,2,22
3253,101,1823,0,7,9,4,6,2,906,2,1,22
3400,101,1788,0,6,7,3,7,1,408,1,2,23
3401,101,1788,0,6,7,3,7,2,991,2,1,23
3677,101,1265,1,9,6,2,9,1,475,1,3,24
3678,101,1265,1,9,6,2,9,2,275,2,2,24
3679,101,1265,1,9,6,2,9,1,127,3,1,24
3711,101,1469,0,5,6,6,4,1,381,1,2,25
3712,101,1469,0,5,6,6,4,2,779,2,1,25
3897,101,1463,0,2,9,7,3,1,455,1,2,26
3898,101,1463,0,2,9,7,3,2,697,2,1,26
4129,101,2126,1,6,2,1,7,1,457,1,3,27
4130,101,2126,1,6,2,1,7,2,501,2,2,27
4131,101,2126,1,6,2,1,7,1,772,3,1,27
4172,101,1452,0,3,9,6,2,1,791,1,2,28
4173,101,1452,0,3,9,6,2,2,332,2,1,28
4227,101,1486,1,9,5,3,7,1,290,1,3,29
4228,101,1486,1,9,5,3,7,2,405,2,2,29
4229,101,1486,1,9,5,3,7,1,381,3,1,29
4429,101,4831,0,6,7,9,3,1,508,1,6,30
4430,101,4831,0,6,7,9,3,2,1003,2,5,30
4431,101,4831,0,6,7,9,3,1,799,3,4,30
4432,101,4831,0,6,7,9,3,2,516,4,3,30
4433,101,4831,0,6,7,9,3,1,353,5,2,30
4434,101,4831,0,6,7,9,3,2,798,6,1,30
4514,101,1315,0,6,7,7,4,1,458,1,2,31
4515,101,1315,0,6,7,7,4,2,489,2,1,31
4646,101,1999,1,6,5,3,8,1,573,1,3,32
4647,101,1999,1,6,5,3,8,2,601,2,2,32
4648,101,1999,1,6,5,3,8,1,353,3,1,32
4794,101,5221,1,9,8,2,8,1,528,1,7,33
4795,101,5221,1,9,8,2,8,2,1170,2,6,33
4796,101,5221,1,9,8,2,8,1,150,3,5,33
4797,101,5221,1,9,8,2,8,3,654,4,4,33
4798,101,5221,1,9,8,2,8,4,980,5,3,33
4799,101,5221,1,9,8,2,8,3,133,6,2,33
4800,101,5221,1,9,8,2,8,1,569,7,1,33
5079,101,1564,1,7,2,7,3,1,399,1,3,34
5080,101,1564,1,7,2,7,3,2,570,2,2,34
5081,101,1564,1,7,2,7,3,1,183,3,1,34
5132,101,920,0,1,9,7,2,1,486,1,2,35
5133,101,920,0,1,9,7,2,2,112,2,1,35
5322,101,1650,1,9,5,2,6,1,286,1,3,36
5323,101,1650,1,9,5,2,6,2,591,2,2,36
5324,101,1650,1,9,5,2,6,1,391,3,1,36
5368,101,1733,0,6,6,9,3,1,441,1,2,37
5369,101,1733,0,6,6,9,3,2,986,2,1,37
5424,101,4074,1,8,8,8,2,1,362,1,6,38
5425,101,4074,1,8,8,8,2,2,981,2,5,38
5426,101,4074,1,8,8,8,2,1,401,3,4,38
5427,101,4074,1,8,8,8,2,2,850,4,3,38
5428,101,4074,1,8,8,8,2,4,198,5,2,38
5429,101,4074,1,8,8,8,2,2,237,6,1,38
5518,101,1519,0,2,9,7,4,1,668,1,2,39
5519,101,1519,0,2,9,7,4,2,526,2,1,39
5666,101,1344,0,1,9,7,3,1,502,1,2,40
5667,101,1344,0,1,9,7,3,2,510,2,1,40
5744,101,3160,1,6,2,3,6,1,1490,1,3,41
5745,101,3160,1,6,2,3,6,2,787,2,2,41
5746,101,3160,1,6,2,3,6,1,370,3,1,41
5796,101,1230,1,6,2,9,3,1,291,1,3,42
5797,101,1230,1,6,2,9,3,2,378,2,2,42
5798,101,1230,1,6,2,9,3,1,143,3,1,42
5911,101,979,0,5,9,6,2,1,488,1,2,43
5912,101,979,0,5,9,6,2,2,174,2,1,43
6035,101,5316,1,5,2,3,7,1,534,1,5,44
6036,101,5316,1,5,2,3,7,2,1380,2,4,44
6037,101,5316,1,5,2,3,7,1,886,3,3,44
6038,101,5316,1,5,2,3,7,2,1133,4,2,44
6039,101,5316,1,5,2,3,7,1,587,5,1,44
6096,101,2057,1,9,6,4,9,1,423,1,3,45
6097,101,2057,1,9,6,4,9,2,379,2,2,45
6098,101,2057,1,9,6,4,9,1,1000,3,1,45
6423,101,1267,1,7,5,4,7,1,280,1,3,46
6424,101,1267,1,7,5,4,7,2,384,2,2,46
6425,101,1267,1,7,5,4,7,1,227,3,1,46
6464,101,2503,1,8,8,8,2,1,346,1,3,47
6465,101,2503,1,8,8,8,2,2,856,2,2,47
6466,101,2503,1,8,8,8,2,1,543,3,1,47
6586,101,1891,1,9,9,6,2,1,467,1,3,48
6587,101,1891,1,9,9,6,2,2,519,2,2,48
6588,101,1891,1,9,9,6,2,1,680,3,1,48
6637,101,3668,0,5,5,3,6,1,495,1,6,49
6638,101,3668,0,5,5,3,6,2,851,2,5,49
6639,101,3668,0,5,5,3,6,1,729,3,4,49
6640,101,3668,0,5,5,3,6,3,398,4,3,49
6641,101,3668,0,5,5,3,6,4,397,5,2,49
6642,101,3668,0,5,5,3,6,2,46,6,1,49
6704,101,5728,1,9,6,2,8,3,328,1,6,50
6705,101,5728,1,9,6,2,8,4,268,2,5,50
6706,101,5728,1,9,6,2,8,3,869,3,4,50
6707,101,5728,1,9,6,2,8,1,245,4,3,50
6708,101,5728,1,9,6,2,8,2,1174,5,2,50
6709,101,5728,1,9,6,2,8,1,1638,6,1,50
6766,101,1240,1,7,5,4,6,1,414,1,3,51
6767,101,1240,1,7,5,4,6,2,365,2,2,51
6768,101,1240,1,7,5,4,6,1,128,3,1,51
6854,101,5054,1,7,9,7,2,1,673,1,7,52
6855,101,5054,1,7,9,7,2,2,1046,2,6,52
6856,101,5054,1,7,9,7,2,1,1065,3,5,52
6857,101,5054,1,7,9,7,2,3,213,4,4,52
6858,101,5054,1,7,9,7,2,4,297,5,3,52
6859,101,5054,1,7,9,7,2,2,220,6,2,52
6860,101,5054,1,7,9,7,2,1,672,7,1,52
6929,101,1813,1,7,5,4,8,1,413,1,3,53
6930,101,1813,1,7,5,4,8,2,834,2,2,53
6931,101,1813,1,7,5,4,8,1,102,3,1,53
6983,101,1220,1,6,1,3,9,1,377,1,3,54
6984,101,1220,1,6,1,3,9,2,411,2,2,54
6985,101,1220,1,6,1,3,9,1,25,3,1,54
7018,101,1414,1,9,1,3,9,1,386,1,3,55
7019,101,1414,1,9,1,3,9,2,337,2,2,55
7020,101,1414,1,9,1,3,9,1,293,3,1,55
7061,101,1274,0,5,7,6,4,1,296,1,2,56
7062,101,1274,0,5,7,6,4,2,632,2,1,56
7248,101,3077,0,7,9,7,2,1,730,1,4,57
7249,101,3077,0,7,9,7,2,2,249,2,3,57
7250,101,3077,0,7,9,7,2,1,902,3,2,57
7251,101,3077,0,7,9,7,2,2,600,4,1,57
7300,101,1372,1,8,2,2,7,1,303,1,3,58
7301,101,1372,1,8,2,2,7,2,417,2,2,58
7302,101,1372,1,8,2,2,7,1,263,3,1,58
7345,101,1345,1,9,2,3,6,1,311,1,3,59
7346,101,1345,1,9,2,3,6,2,530,2,2,59
7347,101,1345,1,9,2,3,6,1,121,3,1,59
7368,101,1382,1,9,5,3,7,1,554,1,2,60
7369,101,1382,1,9,5,3,7,2,498,2,1,60
8852,101,5464,1,2,2,7,3,1,646,1,5,61
8853,101,5464,1,2,2,7,3,2,1097,2,4,61
8854,101,5464,1,2,2,7,3,1,762,3,3,61
8855,101,5464,1,2,2,7,3,3,688,4,2,61
8856,101,5464,1,2,2,7,3,4,1200,5,1,61
9382,101,5921,0,5,5,3,6,1,439,1,6,62
9383,101,5921,0,5,5,3,6,2,862,2,5,62
9384,101,5921,0,5,5,3,6,1,729,3,4,62
9385,101,5921,0,5,5,3,6,2,1743,4,3,62
9386,101,5921,0,5,5,3,6,1,212,5,2,62
9387,101,5921,0,5,5,3,6,2,406,6,1,62
9906,101,1169,1,9,5,2,7,1,570,1,2,63
9907,101,1169,1,9,5,2,7,2,220,2,1,63
12035,101,4550,1,5,2,7,3,1,956,1,3,64
12036,101,4550,1,5,2,7,3,2,1044,2,2,64
12037,101,4550,1,5,2,7,3,1,1832,3,1,64
12497,101,2315,0,1,7,7,4,1,1322,1,2,65
12498,101,2315,0,1,7,7,4,2,523,2,1,65
14157,101,1617,1,6,6,9,3,1,492,1,3,66
14158,101,1617,1,6,6,9,3,2,413,2,2,66
14159,101,1617,1,6,6,9,3,1,232,3,1,66
15217,101,1803,1,9,1,4,7,1,467,1,3,67
15218,101,1803,1,9,1,4,7,2,685,2,2,67
15219,101,1803,1,9,1,4,7,1,224,3,1,67
15777,101,2020,1,7,3,4,7,1,600,1,3,68
15778,101,2020,1,7,3,4,7,2,908,2,2,68
15779,101,2020,1,7,3,4,7,1,82,3,1,68
16346,101,1424,0,2,6,3,9,1,592,1,2,69
16347,101,1424,0,2,6,3,9,2,500,2,1,69
18001,101,1435,0,5,8,7,2,1,559,1,2,70
18002,101,1435,0,5,8,7,2,2,528,2,1,70
18432,101,4206,1,2,2,2,7,2,496,1,4,71
18433,101,4206,1,2,2,2,7,1,836,2,3,71
18434,101,4206,1,2,2,2,7,2,585,3,2,71
18435,101,4206,1,2,2,2,7,1,1387,4,1,71
19908,101,8741,0,9,7,2,7,1,348,1,10,72
19909,101,8741,0,9,7,2,7,2,711,2,9,72
19910,101,8741,0,9,7,2,7,1,571,3,8,72
19911,101,8741,0,9,7,2,7,2,279,4,7,72
19912,101,8741,0,9,7,2,7,1,1534,5,6,72
19913,101,8741,0,9,7,2,7,2,946,6,5,72
19914,101,8741,0,9,7,2,7,4,398,7,4,72
19915,101,8741,0,9,7,2,7,3,1135,8,3,72
19916,101,8741,0,9,7,2,7,4,753,9,2,72
19917,101,8741,0,9,7,2,7,2,461,10,1,72
20089,101,4872,1,7,9,7,2,1,681,1,7,73
20090,101,4872,1,7,9,7,2,2,521,2,6,73
20091,101,4872,1,7,9,7,2,4,426,3,5,73
20092,101,4872,1,7,9,7,2,3,909,4,4,73
20093,101,4872,1,7,9,7,2,4,249,5,3,73
20094,101,4872,1,7,9,7,2,1,601,6,2,73
20095,101,4872,1,7,9,7,2,2,522,7,1,73
20352,101,2775,1,7,3,3,7,1,680,1,3,74
20353,101,2775,1,7,3,3,7,2,982,2,2,74
20354,101,2775,1,7,3,3,7,1,645,3,1,74
20428,101,1780,1,9,3,2,7,1,363,1,3,75
20429,101,1780,1,9,3,2,7,2,565,2,2,75
20430,101,1780,1,9,3,2,7,1,468,3,1,75
20600,101,1573,0,2,7,7,4,1,619,1,2,76
20601,101,1573,0,2,7,7,4,2,583,2,1,76
20699,101,2352,1,5,5,3,6,1,651,1,3,77
20700,101,2352,1,5,5,3,6,2,896,2,2,77
20701,101,2352,1,5,5,3,6,1,489,3,1,77
20786,101,1576,0,3,9,7,3,1,462,1,2,78
20787,101,1576,0,3,9,7,3,2,771,2,1,78
21112,101,1614,0,3,9,7,3,1,466,1,3,79
21113,101,1614,0,3,9,7,3,2,567,2,2,79
21114,101,1614,0,3,9,7,3,4,335,3,1,79
21156,101,1860,0,3,9,6,4,1,677,1,2,80
21157,101,1860,0,3,9,6,4,2,860,2,1,80
21413,101,6284,0,7,9,4,6,1,265,1,8,81
21414,101,6284,0,7,9,4,6,2,683,2,7,81
21415,101,6284,0,7,9,4,6,1,778,3,6,81
21416,101,6284,0,7,9,4,6,3,801,4,5,81
21417,101,6284,0,7,9,4,6,4,1057,5,4,81
21418,101,6284,0,7,9,4,6,3,432,6,3,81
21419,101,6284,0,7,9,4,6,4,707,7,2,81
21420,101,6284,0,7,9,4,6,2,338,8,1,81
21571,101,2303,1,9,5,2,8,1,325,1,3,82
21572,101,2303,1,9,5,2,8,2,533,2,2,82
21573,101,2303,1,9,5,2,8,1,1019,3,1,82
21795,101,6605,1,8,6,8,3,1,960,1,6,83
21796,101,6605,1,8,6,8,3,2,788,2,5,83
21797,101,6605,1,8,6,8,3,1,1489,3,4,83
21798,101,6605,1,8,6,8,3,3,665,4,3,83
21799,101,6605,1,8,6,8,3,4,754,5,2,83
21800,101,6605,1,8,6,8,3,3,858,6,1,83
21836,101,1517,0,2,9,6,2,1,695,1,2,84
21837,101,1517,0,2,9,6,2,2,494,2,1,84
21901,101,4772,0,2,6,6,3,2,348,1,5,85
21902,101,4772,0,2,6,6,3,1,610,2,4,85
21903,101,4772,0,2,6,6,3,2,952,3,3,85
21904,101,4772,0,2,6,6,3,1,898,4,2,85
21905,101,4772,0,2,6,6,3,2,682,5,1,85
21974,101,1851,0,5,8,6,2,1,526,1,2,86
21975,101,1851,0,5,8,6,2,2,886,2,1,86
22020,101,1339,0,5,9,6,2,1,556,1,2,87
22021,101,1339,0,5,9,6,2,2,394,2,1,87
22100,101,2465,1,9,6,6,3,1,827,1,3,88
22101,101,2465,1,9,6,6,3,2,710,2,2,88
22102,101,2465,1,9,6,6,3,1,434,3,1,88
22139,101,1357,0,5,9,7,4,1,558,1,2,89
22140,101,1357,0,5,9,7,4,2,451,2,1,89
22240,101,1148,0,2,9,7,2,1,509,1,2,90
22241,101,1148,0,2,9,7,2,2,298,2,1,90
22270,101,1890,0,8,7,8,4,1,731,1,2,91
22271,101,1890,0,8,7,8,4,2,721,2,1,91
22323,101,2819,1,2,2,2,6,1,924,1,3,92
22324,101,2819,1,2,2,2,6,2,775,2,2,92
22325,101,2819,1,2,2,2,6,1,575,3,1,92
22386,101,1937,1,9,5,3,7,1,444,1,3,93
22387,101,1937,1,9,5,3,7,2,745,2,2,93
22388,101,1937,1,9,5,3,7,1,353,3,1,93
22508,101,1751,1,9,5,4,7,1,299,1,3,94
22509,101,1751,1,9,5,4,7,2,400,2,2,94
22510,101,1751,1,9,5,4,7,1,609,3,1,94
22542,101,1503,1,5,9,6,2,1,487,1,2,95
22543,101,1503,1,5,9,6,2,2,616,2,1,95
22603,101,2080,0,6,6,3,9,1,990,1,2,96
22604,101,2080,0,6,6,3,9,2,684,2,1,96
106,102,7593,0,6,9,8,3,1,631,1,12,1
107,102,7593,0,6,9,8,3,2,539,2,11,1
108,102,7593,0,6,9,8,3,4,141,3,10,1
109,102,7593,0,6,9,8,3,1,330,4,9,1
110,102,7593,0,6,9,8,3,3,269,5,8,1
111,102,7593,0,6,9,8,3,4,628,6,7,1
112,102,7593,0,6,9,8,3,3,743,7,6,1
113,102,7593,0,6,9,8,3,4,426,8,5,1
114,102,7593,0,6,9,8,3,3,188,9,4,1
115,102,7593,0,6,9,8,3,2,605,10,3,1
116,102,7593,0,6,9,8,3,1,1703,11,2,1
117,102,7593,0,6,9,8,3,2,142,12,1,1
175,102,3115,0,4,4,2,6,2,241,1,6,2
176,102,3115,0,4,4,2,6,1,713,2,5,2
177,102,3115,0,4,4,2,6,2,576,3,4,2
178,102,3115,0,4,4,2,6,3,355,4,3,2
179,102,3115,0,4,4,2,6,2,247,5,2,2
180,102,3115,0,4,4,2,6,1,289,6,1,2
422,102,9042,1,3,2,3,9,1,318,1,11,3
423,102,9042,1,3,2,3,9,2,388,2,10,3
424,102,9042,1,3,2,3,9,1,337,3,9,3
425,102,9042,1,3,2,3,9,2,400,4,8,3
426,102,9042,1,3,2,3,9,1,1930,5,7,3
427,102,9042,1,3,2,3,9,2,2560,6,6,3
428,102,9042,1,3,2,3,9,1,219,7,5,3
429,102,9042,1,3,2,3,9,3,535,8,4,3
430,102,9042,1,3,2,3,9,4,517,9,3,3
431,102,9042,1,3,2,3,9,3,212,10,2,3
432,102,9042,1,3,2,3,9,1,16,11,1,3
556,102,4799,1,7,8,4,6,1,1186,1,7,4
557,102,4799,1,7,8,4,6,2,767,2,6,4
558,102,4799,1,7,8,4,6,1,335,3,5,4
559,102,4799,1,7,8,4,6,3,716,4,4,4
560,102,4799,1,7,8,4,6,4,515,5,3,4
561,102,4799,1,7,8,4,6,3,256,6,2,4
562,102,4799,1,7,8,4,6,1,179,7,1,4
837,102,4861,0,8,5,8,4,1,554,1,7,5
838,102,4861,0,8,5,8,4,2,1453,2,6,5
839,102,4861,0,8,5,8,4,4,319,3,5,5
840,102,4861,0,8,5,8,4,3,496,4,4,5
841,102,4861,0,8,5,8,4,2,275,5,3,5
842,102,4861,0,8,5,8,4,1,301,6,2,5
843,102,4861,0,8,5,8,4,2,230,7,1,5
885,102,5324,0,2,7,8,4,1,389,1,10,6
886,102,5324,0,2,7,8,4,2,352,2,9,6
887,102,5324,0,2,7,8,4,1,416,3,8,6
888,102,5324,0,2,7,8,4,2,675,4,7,6
889,102,5324,0,2,7,8,4,4,201,5,6,6
890,102,5324,0,2,7,8,4,3,390,6,5,6
891,102,5324,0,2,7,8,4,4,664,7,4,6
892,102,5324,0,2,7,8,4,3,279,8,3,6
893,102,5324,0,2,7,8,4,1,320,9,2,6
894,102,5324,0,2,7,8,4,2,471,10,1,6
964,102,1705,0,2,9,7,2,1,625,1,2,7
965,102,1705,0,2,9,7,2,2,770,2,1,7
1023,102,1463,0,4,6,6,3,1,321,1,2,8
1024,102,1463,0,4,6,6,3,2,743,2,1,8
1233,102,4738,0,3,7,6,4,1,429,1,8,9
1234,102,4738,0,3,7,6,4,2,435,2,7,9
1235,102,4738,0,3,7,6,4,1,443,3,6,9
1236,102,4738,0,3,7,6,4,3,375,4,5,9
1237,102,4738,0,3,7,6,4,4,706,5,4,9
1238,102,4738,0,3,7,6,4,3,376,6,3,9
1239,102,4738,0,3,7,6,4,1,519,7,2,9
1240,102,4738,0,3,7,6,4,2,418,8,1,9
1300,102,7268,1,9,3,3,6,1,313,1,11,10
1301,102,7268,1,9,3,3,6,2,376,2,10,10
1302,102,7268,1,9,3,3,6,1,770,3,9,10
1303,102,7268,1,9,3,3,6,3,255,4,8,10
1304,102,7268,1,9,3,3,6,4,1037,5,7,10
1305,102,7268,1,9,3,3,6,3,566,6,6,10
1306,102,7268,1,9,3,3,6,4,853,7,5,10
1307,102,7268,1,9,3,3,6,3,712,8,4,10
1308,102,7268,1,9,3,3,6,4,421,9,3,10
1309,102,7268,1,9,3,3,6,2,150,10,2,10
1310,102,7268,1,9,3,3,6,1,438,11,1,10
1445,102,4067,0,4,7,8,3,1,316,1,9,11
1446,102,4067,0,4,7,8,3,2,532,2,8,11
1447,102,4067,0,4,7,8,3,1,367,3,7,11
1448,102,4067,0,4,7,8,3,2,283,4,6,11
1449,102,4067,0,4,7,8,3,1,340,5,5,11
1450,102,4067,0,4,7,8,3,3,303,6,4,11
1451,102,4067,0,4,7,8,3,4,313,7,3,11
1452,102,4067,0,4,7,8,3,2,433,8,2,11
1453,102,4067,0,4,7,8,3,1,330,9,1,11
1469,102,1861,1,6,2,2,8,1,436,1,3,12
1470,102,1861,1,6,2,2,8,2,481,2,2,12
1471,102,1861,1,6,2,2,8,1,525,3,1,12
1634,102,7698,0,7,9,7,4,1,493,1,13,13
1635,102,7698,0,7,9,7,4,2,817,2,12,13
1636,102,7698,0,7,9,7,4,4,293,3,11,13
1637,102,7698,0,7,9,7,4,3,295,4,10,13
1638,102,7698,0,7,9,7,4,4,338,5,9,13
1639,102,7698,0,7,9,7,4,3,571,6,8,13
1640,102,7698,0,7,9,7,4,4,799,7,7,13
1641,102,7698,0,7,9,7,4,3,634,8,6,13
1642,102,7698,0,7,9,7,4,4,454,9,5,13
1643,102,7698,0,7,9,7,4,3,337,10,4,13
1644,102,7698,0,7,9,7,4,4,248,11,3,13
1645,102,7698,0,7,9,7,4,2,691,12,2,13
1646,102,7698,0,7,9,7,4,1,292,13,1,13
1694,102,5646,1,7,5,7,4,1,275,1,8,14
1695,102,5646,1,7,5,7,4,2,430,2,7,14
1696,102,5646,1,7,5,7,4,1,925,3,6,14
1697,102,5646,1,7,5,7,4,2,817,4,5,14
1698,102,5646,1,7,5,7,4,4,403,5,4,14
1699,102,5646,1,7,5,7,4,3,607,6,3,14
1700,102,5646,1,7,5,7,4,4,595,7,2,14
1701,102,5646,1,7,5,7,4,1,592,8,1,14
1793,102,1812,0,8,7,6,2,1,323,1,2,15
1794,102,1812,0,8,7,6,2,2,1094,2,1,15
2016,102,6331,0,7,6,9,3,1,528,1,7,16
2017,102,6331,0,7,6,9,3,2,797,2,6,16
2018,102,6331,0,7,6,9,3,1,974,3,5,16
2019,102,6331,0,7,6,9,3,3,477,4,4,16
2020,102,6331,0,7,6,9,3,4,285,5,3,16
2021,102,6331,0,7,6,9,3,2,1240,6,2,16
2022,102,6331,0,7,6,9,3,1,1038,7,1,16
2050,102,3987,0,7,7,7,4,1,310,1,7,17
2051,102,3987,0,7,7,7,4,2,771,2,6,17
2052,102,3987,0,7,7,7,4,1,441,3,5,17
2053,102,3987,0,7,7,7,4,4,465,4,4,17
2054,102,3987,0,7,7,7,4,3,573,5,3,17
2055,102,3987,0,7,7,7,4,4,386,6,2,17
2056,102,3987,0,7,7,7,4,2,202,7,1,17
2149,102,4446,1,6,2,9,3,1,447,1,7,18
2150,102,4446,1,6,2,9,3,2,829,2,6,18
2151,102,4446,1,6,2,9,3,1,442,3,5,18
2152,102,4446,1,6,2,9,3,3,640,4,4,18
2153,102,4446,1,6,2,9,3,4,751,5,3,18
2154,102,4446,1,6,2,9,3,3,295,6,2,18
2155,102,4446,1,6,2,9,3,1,96,7,1,18
2326,102,1486,1,9,3,2,7,1,405,1,3,19
2327,102,1486,1,9,3,2,7,2,488,2,2,19
2328,102,1486,1,9,3,2,7,1,217,3,1,19
2493,102,3386,1,7,3,4,6,1,257,1,6,20
2494,102,3386,1,7,3,4,6,2,422,2,5,20
2495,102,3386,1,7,3,4,6,1,1011,3,4,20
2496,102,3386,1,7,3,4,6,3,628,4,3,20
2497,102,3386,1,7,3,4,6,4,299,5,2,20
2498,102,3386,1,7,3,4,6,1,104,6,1,20
2564,102,1735,1,8,8,3,6,1,302,1,3,21
2565,102,1735,1,8,8,3,6,2,436,2,2,21
2566,102,1735,1,8,8,3,6,1,532,3,1,21
2605,102,4299,0,4,2,8,3,1,286,1,10,22
2606,102,4299,0,4,2,8,3,2,511,2,9,22
2607,102,4299,0,4,2,8,3,1,288,3,8,22
2608,102,4299,0,4,2,8,3,2,212,4,7,22
2609,102,4299,0,4,2,8,3,4,360,5,6,22
2610,102,4299,0,4,2,8,3,3,325,6,5,22
2611,102,4299,0,4,2,8,3,4,431,7,4,22
2612,102,4299,0,4,2,8,3,3,282,8,3,22
2613,102,4299,0,4,2,8,3,1,229,9,2,22
2614,102,4299,0,4,2,8,3,2,344,10,1,22
2682,102,1411,1,7,4,3,7,1,289,1,3,23
2683,102,1411,1,7,4,3,7,2,376,2,2,23
2684,102,1411,1,7,4,3,7,1,354,3,1,23
3167,102,1329,1,7,3,2,6,1,367,1,3,24
3168,102,1329,1,7,3,2,6,2,385,2,2,24
3169,102,1329,1,7,3,2,6,1,197,3,1,24
3300,102,3829,1,2,3,3,6,1,310,1,8,25
3301,102,3829,1,2,3,3,6,2,405,2,7,25
3302,102,3829,1,2,3,3,6,1,233,3,6,25
3303,102,3829,1,2,3,3,6,3,548,4,5,25
3304,102,3829,1,2,3,3,6,4,380,5,4,25
3305,102,3829,1,2,3,3,6,3,443,6,3,25
3306,102,3829,1,2,3,3,6,1,265,7,2,25
3307,102,3829,1,2,3,3,6,2,370,8,1,25
3343,102,3744,0,6,8,3,8,1,715,1,7,26
3344,102,3744,0,6,8,3,8,2,466,2,6,26
3345,102,3744,0,6,8,3,8,1,560,3,5,26
3346,102,3744,0,6,8,3,8,3,376,4,4,26
3347,102,3744,0,6,8,3,8,4,482,5,3,26
3348,102,3744,0,6,8,3,8,3,208,6,2,26
3349,102,3744,0,6,8,3,8,2,196,7,1,26
3428,102,2334,1,7,4,1,7,1,237,1,6,27
3429,102,2334,1,7,4,1,7,2,380,2,5,27
3430,102,2334,1,7,4,1,7,1,570,3,4,27
3431,102,2334,1,7,4,1,7,3,279,4,3,27
3432,102,2334,1,7,4,1,7,4,219,5,2,27
3433,102,2334,1,7,4,1,7,2,70,6,1,27
3489,102,1512,1,7,6,4,7,1,272,1,3,28
3490,102,1512,1,7,6,4,7,2,361,2,2,28
3491,102,1512,1,7,6,4,7,1,484,3,1,28
3552,102,1376,0,3,9,7,3,1,251,1,3,29
3553,102,1376,0,3,9,7,3,2,404,2,2,29
3554,102,1376,0,3,9,7,3,1,387,3,1,29
3633,102,1379,1,9,4,5,6,1,447,1,3,30
3634,102,1379,1,9,4,5,6,2,360,2,2,30
3635,102,1379,1,9,4,5,6,1,190,3,1,30
3680,102,1442,0,7,9,7,2,1,319,1,3,31
3681,102,1442,0,7,9,7,2,2,452,2,2,31
3682,102,1442,0,7,9,7,2,1,317,3,1,31
3764,102,8805,0,2,8,7,3,1,2915,1,11,32
3765,102,8805,0,2,8,7,3,2,580,2,10,32
3766,102,8805,0,2,8,7,3,4,215,3,9,32
3767,102,8805,0,2,8,7,3,3,557,4,8,32
3768,102,8805,0,2,8,7,3,4,368,5,7,32
3769,102,8805,0,2,8,7,3,3,545,6,6,32
3770,102,8805,0,2,8,7,3,4,411,7,5,32
3771,102,8805,0,2,8,7,3,3,352,8,4,32
3772,102,8805,0,2,8,7,3,4,488,9,3,32
3773,102,8805,0,2,8,7,3,3,384,10,2,32
3774,102,8805,0,2,8,7,3,2,660,11,1,32
3848,102,6178,0,3,9,6,3,1,161,1,11,33
3849,102,6178,0,3,9,6,3,2,377,2,10,33
3850,102,6178,0,3,9,6,3,1,506,3,9,33
3851,102,6178,0,3,9,6,3,2,934,4,8,33
3852,102,6178,0,3,9,6,3,1,475,5,7,33
3853,102,6178,0,3,9,6,3,3,516,6,6,33
3854,102,6178,0,3,9,6,3,4,700,7,5,33
3855,102,6178,0,3,9,6,3,3,554,8,4,33
3856,102,6178,0,3,9,6,3,4,241,9,3,33
3857,102,6178,0,3,9,6,3,1,199,10,2,33
3858,102,6178,0,3,9,6,3,2,166,11,1,33
3899,102,1249,0,3,9,8,2,1,528,1,3,34
3900,102,1249,0,3,9,8,2,2,349,2,2,34
3901,102,1249,0,3,9,8,2,1,16,3,1,34
3916,102,996,0,4,7,8,4,1,201,1,2,35
3917,102,996,0,4,7,8,4,2,515,2,1,35
3973,102,2679,1,4,4,7,2,1,148,1,7,36
3974,102,2679,1,4,4,7,2,2,392,2,6,36
3975,102,2679,1,4,4,7,2,1,416,3,5,36
3976,102,2679,1,4,4,7,2,2,150,4,4,36
3977,102,2679,1,4,4,7,2,3,458,5,3,36
3978,102,2679,1,4,4,7,2,4,255,6,2,36
3979,102,2679,1,4,4,7,2,1,113,7,1,36
4085,102,944,1,9,8,2,8,1,340,1,3,37
4086,102,944,1,9,8,2,8,2,229,2,2,37
4087,102,944,1,9,8,2,8,1,19,3,1,37
4264,102,4043,0,3,3,3,6,1,296,1,6,38
4265,102,4043,0,3,3,3,6,2,352,2,5,38
4266,102,4043,0,3,3,3,6,1,448,3,4,38
4267,102,4043,0,3,3,3,6,2,482,4,3,38
4268,102,4043,0,3,3,3,6,1,1002,5,2,38
4269,102,4043,0,3,3,3,6,2,727,6,1,38
4340,102,998,0,6,8,3,8,1,177,1,3,39
4341,102,998,0,6,8,3,8,2,382,2,2,39
4342,102,998,0,6,8,3,8,1,97,3,1,39
4516,102,2073,0,2,6,8,3,1,290,1,2,40
4517,102,2073,0,2,6,8,3,2,1386,2,1,40
4649,102,1112,0,2,9,8,5,1,276,1,2,41
4650,102,1112,0,2,9,8,5,2,520,2,1,41
4675,102,3271,1,9,3,4,6,1,321,1,7,42
4676,102,3271,1,9,3,4,6,2,386,2,6,42
4677,102,3271,1,9,3,4,6,1,607,3,5,42
4678,102,3271,1,9,3,4,6,3,444,4,4,42
4679,102,3271,1,9,3,4,6,4,477,5,3,42
4680,102,3271,1,9,3,4,6,3,197,6,2,42
4681,102,3271,1,9,3,4,6,1,73,7,1,42
4903,102,5314,1,9,7,3,7,1,405,1,9,43
4904,102,5314,1,9,7,3,7,2,447,2,8,43
4905,102,5314,1,9,7,3,7,1,1233,3,7,43
4906,102,5314,1,9,7,3,7,3,650,4,6,43
4907,102,5314,1,9,7,3,7,1,384,5,5,43
4908,102,5314,1,9,7,3,7,3,317,6,4,43
4909,102,5314,1,9,7,3,7,4,349,7,3,43
4910,102,5314,1,9,7,3,7,3,412,8,2,43
4911,102,5314,1,9,7,3,7,1,120,9,1,43
5183,102,1850,0,3,8,6,3,1,315,1,3,44
5184,102,1850,0,3,8,6,3,2,1073,2,2,44
5185,102,1850,0,3,8,6,3,1,24,3,1,44
5370,102,9255,0,4,7,8,4,1,478,1,13,45
5371,102,9255,0,4,7,8,4,2,804,2,12,45
5372,102,9255,0,4,7,8,4,3,395,3,11,45
5373,102,9255,0,4,7,8,4,4,356,4,10,45
5374,102,9255,0,4,7,8,4,3,656,5,9,45
5375,102,9255,0,4,7,8,4,4,453,6,8,45
5376,102,9255,0,4,7,8,4,3,753,7,7,45
5377,102,9255,0,4,7,8,4,4,897,8,6,45
5378,102,9255,0,4,7,8,4,3,1110,9,5,45
5379,102,9255,0,4,7,8,4,4,509,10,4,45
5380,102,9255,0,4,7,8,4,2,374,11,3,45
5381,102,9255,0,4,7,8,4,1,417,12,2,45
5382,102,9255,0,4,7,8,4,2,499,13,1,45
5486,102,1204,0,3,7,8,2,1,290,1,2,46
5487,102,1204,0,3,7,8,2,2,623,2,1,46
5574,102,1753,1,7,6,7,3,1,337,1,3,47
5575,102,1753,1,7,6,7,3,2,521,2,2,47
5576,102,1753,1,7,6,7,3,1,492,3,1,47
5623,102,1455,1,9,3,4,6,1,566,1,3,48
5624,102,1455,1,9,3,4,6,2,373,2,2,48
5625,102,1455,1,9,3,4,6,1,133,3,1,48
5668,102,5244,0,9,7,3,7,1,240,1,10,49
5669,102,5244,0,9,7,3,7,2,362,2,9,49
5670,102,5244,0,9,7,3,7,1,335,3,8,49
5671,102,5244,0,9,7,3,7,2,235,4,7,49
5672,102,5244,0,9,7,3,7,4,487,5,6,49
5673,102,5244,0,9,7,3,7,3,344,6,5,49
5674,102,5244,0,9,7,3,7,4,380,7,4,49
5675,102,5244,0,9,7,3,7,3,470,8,3,49
5676,102,5244,0,9,7,3,7,4,130,9,2,49
5677,102,5244,0,9,7,3,7,2,715,10,1,49
5851,102,5732,1,8,6,6,2,1,401,1,9,50
5852,102,5732,1,8,6,6,2,2,443,2,8,50
5853,102,5732,1,8,6,6,2,1,937,3,7,50
5854,102,5732,1,8,6,6,2,2,776,4,6,50
5855,102,5732,1,8,6,6,2,4,576,5,5,50
5856,102,5732,1,8,6,6,2,3,577,6,4,50
5857,102,5732,1,8,6,6,2,4,411,7,3,50
5858,102,5732,1,8,6,6,2,3,434,8,2,50
5859,102,5732,1,8,6,6,2,1,197,9,1,50
5969,102,1220,0,7,8,6,3,1,304,1,2,51
5970,102,1220,0,7,8,6,3,2,607,2,1,51
6271,102,6724,1,7,7,3,7,1,264,1,13,52
6272,102,6724,1,7,7,3,7,2,441,2,12,52
6273,102,6724,1,7,7,3,7,1,287,3,11,52
6274,102,6724,1,7,7,3,7,3,615,4,10,52
6275,102,6724,1,7,7,3,7,4,448,5,9,52
6276,102,6724,1,7,7,3,7,3,277,6,8,52
6277,102,6724,1,7,7,3,7,4,493,7,7,52
6278,102,6724,1,7,7,3,7,3,507,8,6,52
6279,102,6724,1,7,7,3,7,4,292,9,5,52
6280,102,6724,1,7,7,3,7,2,305,10,4,52
6281,102,6724,1,7,7,3,7,1,1007,11,3,52
6282,102,6724,1,7,7,3,7,2,341,12,2,52
6283,102,6724,1,7,7,3,7,1,36,13,1,52
6304,102,1520,1,2,3,3,8,1,317,1,3,53
6305,102,1520,1,2,3,3,8,2,435,2,2,53
6306,102,1520,1,2,3,3,8,1,374,3,1,53
6426,102,1701,0,8,8,6,3,1,246,1,4,54
6427,102,1701,0,8,8,6,3,2,633,2,3,54
6428,102,1701,0,8,8,6,3,1,126,3,2,54
6429,102,1701,0,8,8,6,3,2,268,4,1,54
6497,102,1357,1,8,9,6,3,1,218,1,3,55
6498,102,1357,1,8,9,6,3,2,421,2,2,55
6499,102,1357,1,8,9,6,3,1,354,3,1,55
6643,102,1841,1,6,6,3,8,1,449,1,3,56
6644,102,1841,1,6,6,3,8,2,464,2,2,56
6645,102,1841,1,6,6,3,8,1,509,3,1,56
6710,102,1212,0,3,6,8,3,1,342,1,2,57
6711,102,1212,0,3,6,8,3,2,579,2,1,57
6769,102,1474,1,7,7,2,9,1,427,1,3,58
6770,102,1474,1,7,7,2,9,2,340,2,2,58
6771,102,1474,1,7,7,2,9,1,332,3,1,58
6932,102,9486,1,7,3,4,6,1,816,1,14,59
6933,102,9486,1,7,3,4,6,2,605,2,13,59
6934,102,9486,1,7,3,4,6,1,1282,3,12,59
6935,102,9486,1,7,3,4,6,3,929,4,11,59
6936,102,9486,1,7,3,4,6,4,762,5,10,59
6937,102,9486,1,7,3,4,6,3,332,6,9,59
6938,102,9486,1,7,3,4,6,4,562,7,8,59
6939,102,9486,1,7,3,4,6,3,602,8,7,59
6940,102,9486,1,7,3,4,6,4,314,9,6,59
6941,102,9486,1,7,3,4,6,3,388,10,5,59
6942,102,9486,1,7,3,4,6,4,243,11,4,59
6943,102,9486,1,7,3,4,6,3,332,12,3,59
6944,102,9486,1,7,3,4,6,4,117,13,2,59
6945,102,9486,1,7,3,4,6,1,411,14,1,59
7021,102,3430,0,4,4,2,6,1,265,1,7,60
7022,102,3430,0,4,4,2,6,2,621,2,6,60
7023,102,3430,0,4,4,2,6,3,301,3,5,60
7024,102,3430,0,4,4,2,6,4,560,4,4,60
7025,102,3430,0,4,4,2,6,3,471,5,3,60
7026,102,3430,0,4,4,2,6,4,209,6,2,60
7027,102,3430,0,4,4,2,6,2,214,7,1,60
7063,102,1882,0,8,8,6,3,1,338,1,4,61
7064,102,1882,0,8,8,6,3,2,663,2,3,61
7065,102,1882,0,8,8,6,3,1,277,3,2,61
7066,102,1882,0,8,8,6,3,2,124,4,1,61
7172,102,1321,1,9,3,5,6,1,202,1,3,62
7173,102,1321,1,9,3,5,6,2,353,2,2,62
7174,102,1321,1,9,3,5,6,1,354,3,1,62
7211,102,4370,0,8,5,6,4,1,206,1,7,63
7212,102,4370,0,8,5,6,4,2,791,2,6,63
7213,102,4370,0,8,5,6,4,1,506,3,5,63
7214,102,4370,0,8,5,6,4,2,743,4,4,63
7215,102,4370,0,8,5,6,4,1,408,5,3,63
7216,102,4370,0,8,5,6,4,2,363,6,2,63
7217,102,4370,0,8,5,6,4,1,488,7,1,63
7252,102,1848,0,3,9,8,4,2,801,1,3,64
7253,102,1848,0,3,9,8,4,1,173,2,2,64
7254,102,1848,0,3,9,8,4,2,403,3,1,64
7415,102,1495,1,2,2,3,9,1,451,1,3,65
7416,102,1495,1,2,2,3,9,2,325,2,2,65
7417,102,1495,1,2,2,3,9,1,358,3,1,65
8366,102,8228,0,7,9,7,3,1,802,1,13,66
8367,102,8228,0,7,9,7,3,2,681,2,12,66
8368,102,8228,0,7,9,7,3,1,124,3,11,66
8369,102,8228,0,7,9,7,3,3,332,4,10,66
8370,102,8228,0,7,9,7,3,4,399,5,9,66
8371,102,8228,0,7,9,7,3,3,647,6,8,66
8372,102,8228,0,7,9,7,3,4,710,7,7,66
8373,102,8228,0,7,9,7,3,3,811,8,6,66
8374,102,8228,0,7,9,7,3,4,510,9,5,66
8375,102,8228,0,7,9,7,3,3,428,10,4,66
8376,102,8228,0,7,9,7,3,4,623,11,3,66
8377,102,8228,0,7,9,7,3,2,600,12,2,66
8378,102,8228,0,7,9,7,3,1,115,13,1,66
8857,102,7729,1,9,7,5,6,1,739,1,11,67
8858,102,7729,1,9,7,5,6,2,562,2,10,67
8859,102,7729,1,9,7,5,6,1,667,3,9,67
8860,102,7729,1,9,7,5,6,2,222,4,8,67
8861,102,7729,1,9,7,5,6,4,171,5,7,67
8862,102,7729,1,9,7,5,6,3,759,6,6,67
8863,102,7729,1,9,7,5,6,4,541,7,5,67
8864,102,7729,1,9,7,5,6,3,591,8,4,67
8865,102,7729,1,9,7,5,6,4,380,9,3,67
8866,102,7729,1,9,7,5,6,3,439,10,2,67
8867,102,7729,1,9,7,5,6,1,1291,11,1,67
10531,102,8301,0,2,8,3,6,1,519,1,15,68
10532,102,8301,0,2,8,3,6,2,1041,2,14,68
10533,102,8301,0,2,8,3,6,1,655,3,13,68
10534,102,8301,0,2,8,3,6,2,156,4,12,68
10535,102,8301,0,2,8,3,6,4,388,5,11,68
10536,102,8301,0,2,8,3,6,3,383,6,10,68
10537,102,8301,0,2,8,3,6,4,331,7,9,68
10538,102,8301,0,2,8,3,6,3,336,8,8,68
10539,102,8301,0,2,8,3,6,4,483,9,7,68
10540,102,8301,0,2,8,3,6,3,496,10,6,68
10541,102,8301,0,2,8,3,6,4,521,11,5,68
10542,102,8301,0,2,8,3,6,3,537,12,4,68
10543,102,8301,0,2,8,3,6,4,426,13,3,68
10544,102,8301,0,2,8,3,6,3,288,14,2,68
10545,102,8301,0,2,8,3,6,2,30,15,1,68
14673,102,1714,1,6,7,3,6,1,716,1,3,69
14674,102,1714,1,6,7,3,6,2,339,2,2,69
14675,102,1714,1,6,7,3,6,1,213,3,1,69
15220,102,6889,1,7,7,1,7,1,264,1,9,70
15221,102,6889,1,7,7,1,7,2,736,2,8,70
15222,102,6889,1,7,7,1,7,4,447,3,7,70
15223,102,6889,1,7,7,1,7,3,829,4,6,70
15224,102,6889,1,7,7,1,7,4,549,5,5,70
15225,102,6889,1,7,7,1,7,3,674,6,4,70
15226,102,6889,1,7,7,1,7,4,303,7,3,70
15227,102,6889,1,7,7,1,7,2,751,8,2,70
15228,102,6889,1,7,7,1,7,1,1155,9,1,70
15816,102,1677,1,9,4,3,6,1,506,1,3,71
15817,102,1677,1,9,4,3,6,2,433,2,2,71
15818,102,1677,1,9,4,3,6,1,290,3,1,71
16914,102,5903,0,7,7,9,2,1,701,1,8,72
16915,102,5903,0,7,7,9,2,2,877,2,7,72
16916,102,5903,0,7,7,9,2,4,97,3,6,72
16917,102,5903,0,7,7,9,2,3,635,4,5,72
16918,102,5903,0,7,7,9,2,4,633,5,4,72
16919,102,5903,0,7,7,9,2,3,741,6,3,72
16920,102,5903,0,7,7,9,2,2,288,7,2,72
16921,102,5903,0,7,7,9,2,1,757,8,1,72
17427,102,8030,0,6,7,9,4,1,895,1,8,73
17428,102,8030,0,6,7,9,4,2,1511,2,7,73
17429,102,8030,0,6,7,9,4,1,1371,3,6,73
17430,102,8030,0,6,7,9,4,3,761,4,5,73
17431,102,8030,0,6,7,9,4,4,822,5,4,73
17432,102,8030,0,6,7,9,4,3,420,6,3,73
17433,102,8030,0,6,7,9,4,1,148,7,2,73
17434,102,8030,0,6,7,9,4,2,926,8,1,73
19918,102,4794,0,6,9,7,2,1,730,1,7,74
19919,102,4794,0,6,9,7,2,2,824,2,6,74
19920,102,4794,0,6,9,7,2,4,565,3,5,74
19921,102,4794,0,6,9,7,2,3,480,4,4,74
19922,102,4794,0,6,9,7,2,4,625,5,3,74
19923,102,4794,0,6,9,7,2,3,250,6,2,74
19924,102,4794,0,6,9,7,2,2,356,7,1,74
20216,102,1738,1,8,7,3,7,1,531,1,3,75
20217,102,1738,1,8,7,3,7,2,405,2,2,75
20218,102,1738,1,8,7,3,7,1,334,3,1,75
20512,102,4918,0,3,7,8,1,1,909,1,7,76
20513,102,4918,0,3,7,8,1,2,423,2,6,76
20514,102,4918,0,3,7,8,1,4,632,3,5,76
20515,102,4918,0,3,7,8,1,3,497,4,4,76
20516,102,4918,0,3,7,8,1,4,686,5,3,76
20517,102,4918,0,3,7,8,1,3,403,6,2,76
20518,102,4918,0,3,7,8,1,2,450,7,1,76
20702,102,4512,0,4,9,7,3,1,945,1,7,77
20703,102,4512,0,4,9,7,3,2,904,2,6,77
20704,102,4512,0,4,9,7,3,4,790,3,5,77
20705,102,4512,0,4,9,7,3,3,452,4,4,77
20706,102,4512,0,4,9,7,3,4,231,5,3,77
20707,102,4512,0,4,9,7,3,2,148,6,2,77
20708,102,4512,0,4,9,7,3,1,141,7,1,77
20881,102,2085,1,9,7,3,9,1,368,1,3,78
20882,102,2085,1,9,7,3,9,2,630,2,2,78
20883,102,2085,1,9,7,3,9,1,696,3,1,78
20927,102,6542,1,7,7,4,7,1,698,1,10,79
20928,102,6542,1,7,7,4,7,2,640,2,9,79
20929,102,6542,1,7,7,4,7,1,610,3,8,79
20930,102,6542,1,7,7,4,7,3,334,4,7,79
20931,102,6542,1,7,7,4,7,4,867,5,6,79
20932,102,6542,1,7,7,4,7,3,1097,6,5,79
20933,102,6542,1,7,7,4,7,4,321,7,4,79
20934,102,6542,1,7,7,4,7,3,437,8,3,79
20935,102,6542,1,7,7,4,7,4,121,9,2,79
20936,102,6542,1,7,7,4,7,1,209,10,1,79
20968,102,1790,1,6,3,3,7,1,554,1,4,80
20969,102,1790,1,6,3,3,7,2,318,2,3,80
20970,102,1790,1,6,3,3,7,1,389,3,2,80
20971,102,1790,1,6,3,3,7,2,24,4,1,80
21344,102,7086,1,6,9,9,4,1,989,1,9,81
21345,102,7086,1,6,9,9,4,2,1119,2,8,81
21346,102,7086,1,6,9,9,4,1,396,3,7,81
21347,102,7086,1,6,9,9,4,3,474,4,6,81
21348,102,7086,1,6,9,9,4,4,888,5,5,81
21349,102,7086,1,6,9,9,4,3,526,6,4,81
21350,102,7086,1,6,9,9,4,1,444,7,3,81
21351,102,7086,1,6,9,9,4,2,440,8,2,81
21352,102,7086,1,6,9,9,4,1,473,9,1,81
21497,102,5387,0,7,7,7,2,1,487,1,8,82
21498,102,5387,0,7,7,7,2,2,658,2,7,82
21499,102,5387,0,7,7,7,2,1,413,3,6,82
21500,102,5387,0,7,7,7,2,3,483,4,5,82
21501,102,5387,0,7,7,7,2,4,1082,5,4,82
21502,102,5387,0,7,7,7,2,3,465,6,3,82
21503,102,5387,0,7,7,7,2,2,514,7,2,82
21504,102,5387,0,7,7,7,2,1,308,8,1,82
21673,102,6830,1,7,9,6,3,1,267,1,9,83
21674,102,6830,1,7,9,6,3,2,700,2,8,83
21675,102,6830,1,7,9,6,3,1,499,3,7,83
21676,102,6830,1,7,9,6,3,3,497,4,6,83
21677,102,6830,1,7,9,6,3,4,1022,5,5,83
21678,102,6830,1,7,9,6,3,3,581,6,4,83
21679,102,6830,1,7,9,6,3,4,494,7,3,83
21680,102,6830,1,7,9,6,3,3,1091,8,2,83
21681,102,6830,1,7,9,6,3,1,462,9,1,83
21727,102,8163,0,6,5,7,4,1,352,1,10,84
21728,102,8163,0,6,5,7,4,2,1433,2,9,84
21729,102,8163,0,6,5,7,4,1,599,3,8,84
21730,102,8163,0,6,5,7,4,3,716,4,7,84
21731,102,8163,0,6,5,7,4,4,1256,5,6,84
21732,102,8163,0,6,5,7,4,3,681,6,5,84
21733,102,8163,0,6,5,7,4,4,520,7,4,84
21734,102,8163,0,6,5,7,4,3,560,8,3,84
21735,102,8163,0,6,5,7,4,1,250,9,2,84
21736,102,8163,0,6,5,7,4,2,245,10,1,84
21976,102,4445,0,4,7,7,3,1,236,1,9,85
21977,102,4445,0,4,7,7,3,2,585,2,8,85
21978,102,4445,0,4,7,7,3,1,522,3,7,85
21979,102,4445,0,4,7,7,3,2,287,4,6,85
21980,102,4445,0,4,7,7,3,4,274,5,5,85
21981,102,4445,0,4,7,7,3,3,601,6,4,85
21982,102,4445,0,4,7,7,3,4,668,7,3,85
21983,102,4445,0,4,7,7,3,3,253,8,2,85
21984,102,4445,0,4,7,7,3,2,20,9,1,85
22141,102,4881,0,9,8,4,6,1,408,1,8,86
22142,102,4881,0,9,8,4,6,2,490,2,7,86
22143,102,4881,0,9,8,4,6,4,317,3,6,86
22144,102,4881,0,9,8,4,6,3,564,4,5,86
22145,102,4881,0,9,8,4,6,4,774,5,4,86
22146,102,4881,0,9,8,4,6,3,282,6,3,86
22147,102,4881,0,9,8,4,6,1,903,7,2,86
22148,102,4881,0,9,8,4,6,2,158,8,1,86
22172,102,2578,0,2,7,3,7,1,480,1,4,87
22173,102,2578,0,2,7,3,7,2,762,2,3,87
22174,102,2578,0,2,7,3,7,1,619,3,2,87
22175,102,2578,0,2,7,3,7,2,235,4,1,87
22198,102,2225,1,7,3,7,3,1,465,1,4,88
22199,102,2225,1,7,3,7,3,2,553,2,3,88
22200,102,2225,1,7,3,7,3,3,223,3,2,88
22201,102,2225,1,7,3,7,3,1,457,4,1,88
22242,102,1598,1,7,4,7,2,1,308,1,3,89
22243,102,1598,1,7,4,7,2,2,465,2,2,89
22244,102,1598,1,7,4,7,2,1,449,3,1,89
22389,102,5927,0,4,9,7,4,1,269,1,10,90
22390,102,5927,0,4,9,7,4,2,490,2,9,90
22391,102,5927,0,4,9,7,4,1,905,3,8,90
22392,102,5927,0,4,9,7,4,2,980,4,7,90
22393,102,5927,0,4,9,7,4,4,142,5,6,90
22394,102,5927,0,4,9,7,4,3,419,6,5,90
22395,102,5927,0,4,9,7,4,4,589,7,4,90
22396,102,5927,0,4,9,7,4,3,296,8,3,90
22397,102,5927,0,4,9,7,4,1,224,9,2,90
22398,102,5927,0,4,9,7,4,2,309,10,1,90
22544,102,3431,1,2,2,3,8,1,507,1,6,91
22545,102,3431,1,2,2,3,8,2,604,2,5,91
22546,102,3431,1,2,2,3,8,1,570,3,4,91
22547,102,3431,1,2,2,3,8,2,564,4,3,91
22548,102,3431,1,2,2,3,8,1,315,5,2,91
22549,102,3431,1,2,2,3,8,3,155,6,1,91
22605,102,7195,1,8,8,3,6,1,343,1,12,92
22606,102,7195,1,8,8,3,6,2,405,2,11,92
22607,102,7195,1,8,8,3,6,1,1499,3,10,92
22608,102,7195,1,8,8,3,6,2,263,4,9,92
22609,102,7195,1,8,8,3,6,1,209,5,8,92
22610,102,7195,1,8,8,3,6,3,520,6,7,92
22611,102,7195,1,8,8,3,6,4,760,7,6,92
22612,102,7195,1,8,8,3,6,3,412,8,5,92
22613,102,7195,1,8,8,3,6,4,597,9,4,92
22614,102,7195,1,8,8,3,6,1,152,10,3,92
22615,102,7195,1,8,8,3,6,2,487,11,2,92
22616,102,7195,1,8,8,3,6,1,156,12,1,92
22672,102,1566,0,3,4,3,7,1,279,1,4,93
22673,102,1566,0,3,4,3,7,2,623,2,3,93
22674,102,1566,0,3,4,3,7,4,189,3,2,93
22675,102,1566,0,3,4,3,7,1,41,4,1,93
22753,102,2612,1,7,4,2,8,1,1301,1,3,94
22754,102,2612,1,7,4,2,8,2,357,2,2,94
22755,102,2612,1,7,4,2,8,1,422,3,1,94
181,103,4326,0,1,9,6,2,1,1632,1,4,1
182,103,4326,0,1,9,6,2,2,759,2,3,1
183,103,4326,0,1,9,6,2,1,381,3,2,1
184,103,4326,0,1,9,6,2,2,605,4,1,1
241,103,1177,1,9,1,2,6,2,291,1,2,2
242,103,1177,1,9,1,2,6,1,535,2,1,2
333,103,1085,1,9,1,2,8,1,366,1,3,3
334,103,1085,1,9,1,2,8,2,278,2,2,3
335,103,1085,1,9,1,2,8,1,73,3,1,3
433,103,1636,1,9,1,8,3,1,509,1,3,4
434,103,1636,1,9,1,8,3,2,422,2,2,4
435,103,1636,1,9,1,8,3,1,315,3,1,4
486,103,2262,0,1,1,4,6,1,428,1,4,5
487,103,2262,0,1,1,4,6,2,536,2,3,5
488,103,2262,0,1,1,4,6,1,466,3,2,5
489,103,2262,0,1,1,4,6,2,365,4,1,5
678,103,1333,1,9,9,4,9,1,350,1,3,6
679,103,1333,1,9,9,4,9,2,358,2,2,6
680,103,1333,1,9,9,4,9,1,182,3,1,6
746,103,1307,1,9,9,2,9,1,436,1,3,7
747,103,1307,1,9,9,2,9,2,346,2,2,7
748,103,1307,1,9,9,2,9,1,128,3,1,7
793,103,1844,1,9,1,7,1,1,111,1,4,8
794,103,1844,1,9,1,7,1,2,361,2,3,8
795,103,1844,1,9,1,7,1,1,627,3,2,8
796,103,1844,1,9,1,7,1,2,263,4,1,8
895,103,1838,1,9,9,3,9,1,394,1,4,9
896,103,1838,1,9,9,3,9,2,419,2,3,9
897,103,1838,1,9,9,3,9,1,495,3,2,9
898,103,1838,1,9,9,3,9,2,66,4,1,9
923,103,1086,1,9,9,2,8,1,367,1,3,10
924,103,1086,1,9,9,2,8,2,254,2,2,10
925,103,1086,1,9,9,2,8,1,48,3,1,10
1065,103,2086,0,1,1,8,3,1,111,1,4,11
1066,103,2086,0,1,1,8,3,2,414,2,3,11
1067,103,2086,0,1,1,8,3,1,542,3,2,11
1068,103,2086,0,1,1,8,3,2,500,4,1,11
1114,103,3312,0,9,9,7,2,1,168,1,4,12
1115,103,3312,0,9,9,7,2,2,476,2,3,12
1116,103,3312,0,9,9,7,2,1,954,3,2,12
1117,103,3312,0,9,9,7,2,2,1052,4,1,12
1205,103,1160,1,9,1,2,7,1,383,1,3,13
1206,103,1160,1,9,1,2,7,2,286,2,2,13
1207,103,1160,1,9,1,2,7,1,98,3,1,13
1369,103,1447,0,1,5,4,7,1,341,1,2,14
1370,103,1447,0,1,5,4,7,2,744,2,1,14
1454,103,4615,0,1,1,8,4,1,458,1,4,15
1455,103,4615,0,1,1,8,4,2,2074,2,3,15
1456,103,4615,0,1,1,8,4,1,967,3,2,15
1457,103,4615,0,1,1,8,4,2,415,4,1,15
1472,103,2700,1,1,9,6,2,1,387,1,3,16
1473,103,2700,1,1,9,6,2,2,940,2,2,16
1474,103,2700,1,1,9,6,2,1,862,3,1,16
1647,103,5679,0,9,9,9,4,1,365,1,8,17
1648,103,5679,0,9,9,9,4,2,743,2,7,17
1649,103,5679,0,9,9,9,4,1,594,3,6,17
1650,103,5679,0,9,9,9,4,2,974,4,5,17
1651,103,5679,0,9,9,9,4,4,760,5,4,17
1652,103,5679,0,9,9,9,4,3,418,6,3,17
1653,103,5679,0,9,9,9,4,4,475,7,2,17
1654,103,5679,0,9,9,9,4,1,333,8,1,17
1745,103,1203,0,1,5,3,7,1,233,1,2,18
1746,103,1203,0,1,5,3,7,2,601,2,1,18
2023,103,813,1,9,9,2,7,1,269,1,2,19
2024,103,813,1,9,9,2,7,2,225,2,1,19
2190,103,5906,1,1,1,3,6,1,1955,1,7,20
2191,103,5906,1,1,1,3,6,2,962,2,6,20
2192,103,5906,1,1,1,3,6,1,426,3,5,20
2193,103,5906,1,1,1,3,6,3,602,4,4,20
2194,103,5906,1,1,1,3,6,4,615,5,3,20
2195,103,5906,1,1,1,3,6,3,298,6,2,20
2196,103,5906,1,1,1,3,6,1,45,7,1,20
2499,103,911,0,1,9,6,2,2,284,1,2,21
2500,103,911,0,1,9,6,2,1,264,2,1,21
2615,103,1343,1,9,1,2,9,1,281,1,3,22
2616,103,1343,1,9,1,2,9,2,502,2,2,22
2617,103,1343,1,9,1,2,9,1,178,3,1,22
2651,103,1068,0,9,9,7,2,1,164,1,2,23
2652,103,1068,0,9,9,7,2,2,562,2,1,23
2685,103,2320,0,9,9,3,7,2,213,1,3,24
2686,103,2320,0,9,9,3,7,1,385,2,2,24
2687,103,2320,0,9,9,3,7,2,1208,3,1,24
2750,103,8315,0,1,1,7,1,1,1026,1,10,25
2751,103,8315,0,1,1,7,1,2,1353,2,9,25
2752,103,8315,0,1,1,7,1,1,641,3,8,25
2753,103,8315,0,1,1,7,1,3,241,4,7,25
2754,103,8315,0,1,1,7,1,1,578,5,6,25
2755,103,8315,0,1,1,7,1,2,1107,6,5,25
2756,103,8315,0,1,1,7,1,4,572,7,4,25
2757,103,8315,0,1,1,7,1,3,827,8,3,25
2758,103,8315,0,1,1,7,1,4,252,9,2,25
2759,103,8315,0,1,1,7,1,2,405,10,1,25
2839,103,1573,1,9,1,7,4,1,369,1,3,26
2840,103,1573,1,9,1,7,4,2,412,2,2,26
2841,103,1573,1,9,1,7,4,1,370,3,1,26
2896,103,1180,0,9,9,7,2,1,158,1,2,27
2897,103,1180,0,9,9,7,2,2,643,2,1,27
3350,103,2363,1,9,9,4,7,1,867,1,3,28
3351,103,2363,1,9,9,4,7,2,429,2,2,28
3352,103,2363,1,9,9,4,7,1,591,3,1,28
3402,103,970,1,9,9,2,7,1,248,1,3,29
3403,103,970,1,9,9,2,7,2,248,2,2,29
3404,103,970,1,9,9,2,7,1,23,3,1,29
3555,103,1678,1,9,9,7,2,1,138,1,3,30
3556,103,1678,1,9,9,7,2,2,358,2,2,30
3557,103,1678,1,9,9,7,2,1,719,3,1,30
3636,103,1895,1,5,1,8,3,1,532,1,3,31
3637,103,1895,1,5,1,8,3,2,423,2,2,31
3638,103,1895,1,5,1,8,3,1,471,3,1,31
3713,103,1147,1,9,1,2,8,1,360,1,3,32
3714,103,1147,1,9,1,2,8,2,246,2,2,32
3715,103,1147,1,9,1,2,8,1,160,3,1,32
3918,103,2469,1,5,9,6,2,1,467,1,3,33
3919,103,2469,1,5,9,6,2,2,858,2,2,33
3920,103,2469,1,5,9,6,2,1,676,3,1,33
3980,103,1752,1,1,9,6,4,1,418,1,3,34
3981,103,1752,1,1,9,6,4,2,840,2,2,34
3982,103,1752,1,1,9,6,4,1,116,3,1,34
4132,103,3928,0,1,9,3,7,1,666,1,4,35
4133,103,3928,0,1,9,3,7,2,2267,2,3,35
4134,103,3928,0,1,9,3,7,1,340,3,2,35
4135,103,3928,0,1,9,3,7,2,46,4,1,35
4174,103,2056,1,9,1,9,1,1,1022,1,3,36
4175,103,2056,1,9,1,9,1,2,295,2,2,36
4176,103,2056,1,9,1,9,1,1,227,3,1,36
4343,103,1249,0,5,9,4,9,1,336,1,2,37
4344,103,1249,0,5,9,4,9,2,602,2,1,37
4576,103,948,0,1,1,4,6,1,224,1,2,38
4577,103,948,0,1,1,4,6,2,406,2,1,38
4682,103,1581,0,1,9,3,7,1,380,1,4,39
4683,103,1581,0,1,9,3,7,2,459,2,3,39
4684,103,1581,0,1,9,3,7,1,203,3,2,39
4685,103,1581,0,1,9,3,7,2,21,4,1,39
4749,103,1647,1,1,5,3,9,1,885,1,3,40
4750,103,1647,1,1,5,3,9,2,237,2,2,40
4751,103,1647,1,1,5,3,9,1,144,3,1,40
4801,103,5770,1,9,1,3,8,1,1338,1,7,41
4802,103,5770,1,9,1,3,8,2,633,2,6,41
4803,103,5770,1,9,1,3,8,1,690,3,5,41
4804,103,5770,1,9,1,3,8,3,604,4,4,41
4805,103,5770,1,9,1,3,8,1,404,5,3,41
4806,103,5770,1,9,1,3,8,2,849,6,2,41
4807,103,5770,1,9,1,3,8,1,257,7,1,41
4972,103,2393,0,1,1,7,4,1,353,1,4,42
4973,103,2393,0,1,1,7,4,2,616,2,3,42
4974,103,2393,0,1,1,7,4,1,543,3,2,42
4975,103,2393,0,1,1,7,4,2,298,4,1,42
5134,103,1075,1,9,9,2,9,1,336,1,3,43
5135,103,1075,1,9,9,2,9,2,240,2,2,43
5136,103,1075,1,9,9,2,9,1,151,3,1,43
5293,103,1815,1,5,9,6,4,1,699,1,3,44
5294,103,1815,1,5,9,6,4,2,334,2,2,44
5295,103,1815,1,5,9,6,4,1,368,3,1,44
5325,103,1475,1,1,9,8,3,1,467,1,3,45
5326,103,1475,1,1,9,8,3,2,443,2,2,45
5327,103,1475,1,1,9,8,3,1,347,3,1,45
5430,103,6353,0,1,1,6,3,1,3006,1,6,46
5431,103,6353,0,1,1,6,3,2,1036,2,5,46
5432,103,6353,0,1,1,6,3,4,499,3,4,46
5433,103,6353,0,1,1,6,3,3,391,4,3,46
5434,103,6353,0,1,1,6,3,4,317,5,2,46
5435,103,6353,0,1,1,6,3,1,38,6,1,46
5520,103,1545,1,9,9,7,3,1,507,1,3,47
5521,103,1545,1,9,9,7,3,2,362,2,2,47
5522,103,1545,1,9,9,7,3,1,276,3,1,47
5678,103,1486,0,1,9,9,2,1,632,1,2,48
5679,103,1486,0,1,9,9,2,2,506,2,1,48
5913,103,926,1,9,1,2,8,1,252,1,3,49
5914,103,926,1,9,1,2,8,2,299,2,2,49
5915,103,926,1,9,1,2,8,1,56,3,1,49
5971,103,1037,1,9,9,8,3,1,367,1,3,50
5972,103,1037,1,9,9,8,3,2,236,2,2,50
5973,103,1037,1,9,9,8,3,1,79,3,1,50
6040,103,8976,0,1,5,1,6,1,2080,1,5,51
6041,103,8976,0,1,5,1,6,2,1313,2,4,51
6042,103,8976,0,1,5,1,6,4,2338,3,3,51
6043,103,8976,0,1,5,1,6,3,1450,4,2,51
6044,103,8976,0,1,5,1,6,2,432,5,1,51
6165,103,1079,0,1,5,1,6,1,288,1,2,52
6166,103,1079,0,1,5,1,6,2,480,2,1,52
6202,103,1432,1,9,1,4,9,1,291,1,3,53
6203,103,1432,1,9,1,4,9,2,722,2,2,53
6204,103,1432,1,9,1,4,9,1,28,3,1,53
6231,103,4670,0,9,9,3,8,1,300,1,4,54
6232,103,4670,0,9,9,3,8,2,559,2,3,54
6233,103,4670,0,9,9,3,8,1,2122,3,2,54
6234,103,4670,0,9,9,3,8,2,935,4,1,54
6284,103,3823,0,1,1,8,3,1,305,1,4,55
6285,103,3823,0,1,1,8,3,2,672,2,3,55
6286,103,3823,0,1,1,8,3,1,1415,3,2,55
6287,103,3823,0,1,1,8,3,2,783,4,1,55
6500,103,730,1,9,9,4,8,2,244,1,2,56
6501,103,730,1,9,9,4,8,1,179,2,1,56
6589,103,2633,1,5,9,4,7,1,417,1,5,57
6590,103,2633,1,5,9,4,7,2,337,2,4,57
6591,103,2633,1,5,9,4,7,1,755,3,3,57
6592,103,2633,1,5,9,4,7,2,355,4,2,57
6593,103,2633,1,5,9,4,7,1,139,5,1,57
6646,103,842,0,1,9,7,2,1,391,1,2,58
6647,103,842,0,1,9,7,2,2,128,2,1,58
6886,103,2104,1,5,1,4,9,1,210,1,4,59
6887,103,2104,1,5,1,4,9,2,252,2,3,59
6888,103,2104,1,5,1,4,9,1,796,3,2,59
6889,103,2104,1,5,1,4,9,2,309,4,1,59
6986,103,2152,1,5,1,9,3,1,159,1,5,60
6987,103,2152,1,5,1,9,3,2,511,2,4,60
6988,103,2152,1,5,1,9,3,1,536,3,3,60
6989,103,2152,1,5,1,9,3,2,284,4,2,60
6990,103,2152,1,5,1,9,3,1,159,5,1,60
7028,103,1616,0,9,5,2,6,1,414,1,4,61
7029,103,1616,0,9,5,2,6,2,301,2,3,61
7030,103,1616,0,9,5,2,6,1,171,3,2,61
7031,103,1616,0,9,5,2,6,2,274,4,1,61
7098,103,1233,0,5,9,2,7,1,152,1,3,62
7099,103,1233,0,5,9,2,7,2,441,2,2,62
7100,103,1233,0,5,9,2,7,1,195,3,1,62
7175,103,1215,0,1,9,8,2,1,317,1,2,63
7176,103,1215,0,1,9,8,2,2,564,2,1,63
7218,103,1342,0,1,1,3,6,1,236,1,3,64
7219,103,1342,0,1,1,3,6,2,528,2,2,64
7220,103,1342,0,1,1,3,6,1,211,3,1,64
7255,103,3533,1,9,1,4,9,1,235,1,5,65
7256,103,3533,1,9,1,4,9,2,440,2,4,65
7257,103,3533,1,9,1,4,9,1,600,3,3,65
7258,103,3533,1,9,1,4,9,2,1020,4,2,65
7259,103,3533,1,9,1,4,9,1,502,5,1,65
7882,103,4658,1,9,5,2,8,1,489,1,6,66
7883,103,4658,1,9,5,2,8,2,651,2,5,66
7884,103,4658,1,9,5,2,8,1,198,3,4,66
7885,103,4658,1,9,5,2,8,3,867,4,3,66
7886,103,4658,1,9,5,2,8,4,1126,5,2,66
7887,103,4658,1,9,5,2,8,1,522,6,1,66
9908,103,6506,1,9,9,8,2,1,1211,1,7,67
9909,103,6506,1,9,9,8,2,2,2227,2,6,67
9910,103,6506,1,9,9,8,2,1,636,3,5,67
9911,103,6506,1,9,9,8,2,3,469,4,4,67
9912,103,6506,1,9,9,8,2,4,615,5,3,67
9913,103,6506,1,9,9,8,2,3,278,6,2,67
9914,103,6506,1,9,9,8,2,1,93,7,1,67
10456,103,9428,0,9,5,4,6,1,1186,1,8,68
10457,103,9428,0,9,5,4,6,2,2248,2,7,68
10458,103,9428,0,9,5,4,6,1,706,3,6,68
10459,103,9428,0,9,5,4,6,2,268,4,5,68
10460,103,9428,0,9,5,4,6,4,1639,5,4,68
10461,103,9428,0,9,5,4,6,3,1060,6,3,68
10462,103,9428,0,9,5,4,6,4,493,7,2,68
10463,103,9428,0,9,5,4,6,2,136,8,1,68
10546,103,3685,1,9,1,7,4,1,762,1,3,69
10547,103,3685,1,9,1,7,4,2,1314,2,2,69
10548,103,3685,1,9,1,7,4,1,1063,3,1,69
15819,103,3778,0,9,9,4,9,1,924,1,5,70
15820,103,3778,0,9,9,4,9,2,563,2,4,70
15821,103,3778,0,9,9,4,9,1,508,3,3,70
15822,103,3778,0,9,9,4,9,2,831,4,2,70
15823,103,3778,0,9,9,4,9,4,339,5,1,70
16922,103,6364,0,9,9,3,7,1,1512,1,8,71
16923,103,6364,0,9,9,3,7,2,651,2,7,71
16924,103,6364,0,9,9,3,7,1,713,3,6,71
16925,103,6364,0,9,9,3,7,2,992,4,5,71
16926,103,6364,0,9,9,3,7,4,558,5,4,71
16927,103,6364,0,9,9,3,7,3,424,6,3,71
16928,103,6364,0,9,9,3,7,4,316,7,2,71
16929,103,6364,0,9,9,3,7,2,130,8,1,71
18436,103,3398,0,1,9,6,2,1,500,1,3,72
18437,103,3398,0,1,9,6,2,2,1734,2,2,72
18438,103,3398,0,1,9,6,2,4,482,3,1,72
18941,103,6460,0,9,9,9,2,1,998,1,7,73
18942,103,6460,0,9,9,9,2,2,542,2,6,73
18943,103,6460,0,9,9,9,2,1,349,3,5,73
18944,103,6460,0,9,9,9,2,2,751,4,4,73
18945,103,6460,0,9,9,9,2,4,1229,5,3,73
18946,103,6460,0,9,9,9,2,3,1238,6,2,73
18947,103,6460,0,9,9,9,2,4,231,7,1,73
19449,103,2761,1,9,9,2,9,1,410,1,5,74
19450,103,2761,1,9,9,2,9,2,736,2,4,74
19451,103,2761,1,9,9,2,9,1,248,3,3,74
19452,103,2761,1,9,9,2,9,3,610,4,2,74
19453,103,2761,1,9,9,2,9,1,72,5,1,74
20030,103,4533,1,9,9,4,7,1,417,1,7,75
20031,103,4533,1,9,9,4,7,2,536,2,6,75
20032,103,4533,1,9,9,4,7,1,363,3,5,75
20033,103,4533,1,9,9,4,7,3,459,4,4,75
20034,103,4533,1,9,9,4,7,4,671,5,3,75
20035,103,4533,1,9,9,4,7,3,470,6,2,75
20036,103,4533,1,9,9,4,7,1,616,7,1,75
20096,103,7680,0,9,9,8,2,1,117,1,9,76
20097,103,7680,0,9,9,8,2,2,909,2,8,76
20098,103,7680,0,9,9,8,2,1,981,3,7,76
20099,103,7680,0,9,9,8,2,2,444,4,6,76
20100,103,7680,0,9,9,8,2,4,684,5,5,76
20101,103,7680,0,9,9,8,2,3,1549,6,4,76
20102,103,7680,0,9,9,8,2,4,434,7,3,76
20103,103,7680,0,9,9,8,2,3,468,8,2,76
20104,103,7680,0,9,9,8,2,2,395,9,1,76
20219,103,5400,1,9,9,2,9,1,810,1,7,77
20220,103,5400,1,9,9,2,9,2,363,2,6,77
20221,103,5400,1,9,9,2,9,1,383,3,5,77
20222,103,5400,1,9,9,2,9,3,361,4,4,77
20223,103,5400,1,9,9,2,9,1,961,5,3,77
20224,103,5400,1,9,9,2,9,2,455,6,2,77
20225,103,5400,1,9,9,2,9,3,1008,7,1,77
20630,103,4172,0,5,9,8,2,2,297,1,7,78
20631,103,4172,0,5,9,8,2,1,743,2,6,78
20632,103,4172,0,5,9,8,2,2,534,3,5,78
20633,103,4172,0,5,9,8,2,4,275,4,4,78
20634,103,4172,0,5,9,8,2,3,549,5,3,78
20635,103,4172,0,5,9,8,2,4,364,6,2,78
20636,103,4172,0,5,9,8,2,2,357,7,1,78
20709,103,3486,0,9,1,7,3,1,347,1,6,79
20710,103,3486,0,9,1,7,3,2,1163,2,5,79
20711,103,3486,0,9,1,7,3,4,366,3,4,79
20712,103,3486,0,9,1,7,3,1,361,4,3,79
20713,103,3486,0,9,1,7,3,4,368,5,2,79
20714,103,3486,0,9,1,7,3,2,141,6,1,79
20788,103,6555,1,1,5,6,4,1,282,1,9,80
20789,103,6555,1,1,5,6,4,2,413,2,8,80
20790,103,6555,1,1,5,6,4,1,897,3,7,80
20791,103,6555,1,1,5,6,4,2,962,4,6,80
20792,103,6555,1,1,5,6,4,1,1451,5,5,80
20793,103,6555,1,1,5,6,4,3,563,6,4,80
20794,103,6555,1,1,5,6,4,4,420,7,3,80
20795,103,6555,1,1,5,6,4,3,252,8,2,80
20796,103,6555,1,1,5,6,4,1,245,9,1,80
21013,103,6755,1,9,1,2,8,2,421,1,5,81
21014,103,6755,1,9,1,2,8,1,1036,2,4,81
21015,103,6755,1,9,1,2,8,2,3227,3,3,81
21016,103,6755,1,9,1,2,8,1,470,4,2,81
21017,103,6755,1,9,1,2,8,3,560,5,1,81
21064,103,1585,1,5,1,9,3,1,323,1,3,82
21065,103,1585,1,5,1,9,3,2,471,2,2,82
21066,103,1585,1,5,1,9,3,1,334,3,1,82
21115,103,1735,0,9,9,7,4,1,349,1,2,83
21116,103,1735,0,9,9,7,4,2,994,2,1,83
21574,103,1706,0,1,1,7,3,1,629,1,2,84
21575,103,1706,0,1,1,7,3,2,670,2,1,84
21838,103,3040,0,5,5,9,2,1,399,1,4,85
21839,103,3040,0,5,5,9,2,2,1211,2,3,85
21840,103,3040,0,5,5,9,2,1,352,3,2,85
21841,103,3040,0,5,5,9,2,2,521,4,1,85
22103,103,1748,1,9,9,2,7,1,489,1,3,86
22104,103,1748,1,9,9,2,7,2,527,2,2,86
22105,103,1748,1,9,9,2,7,1,274,3,1,86
22245,103,1656,0,1,5,3,7,1,554,1,2,87
22246,103,1656,0,1,5,3,7,2,712,2,1,87
22326,103,2420,1,9,9,4,7,1,1224,1,3,88
22327,103,2420,1,9,9,4,7,2,453,2,2,88
22328,103,2420,1,9,9,4,7,1,238,3,1,88
22399,103,2854,1,5,9,6,2,1,962,1,3,89
22400,103,2854,1,5,9,6,2,2,486,2,2,89
22401,103,2854,1,5,9,6,2,1,854,3,1,89
22617,103,2241,1,1,1,3,8,1,1155,1,3,90
22618,103,2241,1,1,1,3,8,2,562,2,2,90
22619,103,2241,1,1,1,3,8,1,106,3,1,90
22756,103,2909,1,1,1,8,3,1,1439,1,3,91
22757,103,2909,1,1,1,8,3,2,479,2,2,91
22758,103,2909,1,1,1,8,3,1,481,3,1,91
47,104,2924,1,5,1,6,3,1,794,1,4,1
48,104,2924,1,5,1,6,3,2,778,2,3,1
49,104,2924,1,5,1,6,3,1,770,3,2,1
50,104,2924,1,5,1,6,3,3,61,4,1,1
206,104,5024,0,6,3,4,6,2,314,1,4,2
207,104,5024,0,6,3,4,6,1,1990,2,3,2
208,104,5024,0,6,3,4,6,3,869,3,2,2
209,104,5024,0,6,3,4,6,2,765,4,1,2
336,104,2717,1,5,4,9,3,2,367,1,5,3
337,104,2717,1,5,4,9,3,1,711,2,4,3
338,104,2717,1,5,4,9,3,2,286,3,3,3
339,104,2717,1,5,4,9,3,3,325,4,2,3
340,104,2717,1,5,4,9,3,1,125,5,1,3
389,104,6197,1,5,7,9,3,1,676,1,8,4
390,104,6197,1,5,7,9,3,2,294,2,7,4
391,104,6197,1,5,7,9,3,3,1208,3,6,4
392,104,6197,1,5,7,9,3,1,271,4,5,4
393,104,6197,1,5,7,9,3,2,654,5,4,4
394,104,6197,1,5,7,9,3,1,902,6,3,4
395,104,6197,1,5,7,9,3,4,570,7,2,4
396,104,6197,1,5,7,9,3,1,37,8,1,4
490,104,5747,1,9,3,3,7,1,373,1,5,5
491,104,5747,1,9,3,3,7,2,1086,2,4,5
492,104,5747,1,9,3,3,7,1,1678,3,3,5
493,104,5747,1,9,3,3,7,2,404,4,2,5
494,104,5747,1,9,3,3,7,3,475,5,1,5
681,104,4864,0,4,9,5,8,2,643,1,6,6
682,104,4864,0,4,9,5,8,4,82,2,5,6
683,104,4864,0,4,9,5,8,3,299,3,4,6
684,104,4864,0,4,9,5,8,1,304,4,3,6
685,104,4864,0,4,9,5,8,2,1891,5,2,6
686,104,4864,0,4,9,5,8,4,111,6,1,6
844,104,3587,0,4,3,6,3,1,367,1,6,7
845,104,3587,0,4,3,6,3,2,449,2,5,7
846,104,3587,0,4,3,6,3,3,123,3,4,7
847,104,3587,0,4,3,6,3,4,174,4,3,7
848,104,3587,0,4,3,6,3,1,570,5,2,7
849,104,3587,0,4,3,6,3,2,692,6,1,7
926,104,1859,1,9,3,7,3,1,260,1,3,8
927,104,1859,1,9,3,7,3,2,435,2,2,8
928,104,1859,1,9,3,7,3,1,6,3,1,8
1118,104,5495,1,8,4,6,5,1,598,1,5,9
1119,104,5495,1,8,4,6,5,2,2476,2,4,9
1120,104,5495,1,8,4,6,5,1,499,3,3,9
1121,104,5495,1,8,4,6,5,3,53,4,2,9
1122,104,5495,1,8,4,6,5,1,61,5,1,9
1208,104,3487,0,5,9,9,2,2,301,1,6,10
1209,104,3487,0,5,9,9,2,1,379,2,5,10
1210,104,3487,0,5,9,9,2,3,924,3,4,10
1211,104,3487,0,5,9,9,2,1,306,4,3,10
1212,104,3487,0,5,9,9,2,2,444,5,2,10
1213,104,3487,0,5,9,9,2,4,209,6,1,10
1241,104,2472,1,8,1,2,7,2,325,1,4,11
1242,104,2472,1,8,1,2,7,1,535,2,3,11
1243,104,2472,1,8,1,2,7,3,115,3,2,11
1244,104,2472,1,8,1,2,7,2,376,4,1,11
1475,104,4324,1,9,9,7,3,1,358,1,7,12
1476,104,4324,1,9,9,7,3,2,766,2,6,12
1477,104,4324,1,9,9,7,3,1,1087,3,5,12
1478,104,4324,1,9,9,7,3,4,211,4,4,12
1479,104,4324,1,9,9,7,3,3,226,5,3,12
1480,104,4324,1,9,9,7,3,2,559,6,2,12
1481,104,4324,1,9,9,7,3,1,13,7,1,12
1551,104,1114,0,1,9,3,8,2,269,1,2,13
1552,104,1114,0,1,9,3,8,1,320,2,1,13
1844,104,4730,1,5,1,3,9,2,425,1,6,14
1845,104,4730,1,5,1,3,9,1,456,2,5,14
1846,104,4730,1,5,1,3,9,3,229,3,4,14
1847,104,4730,1,5,1,3,9,4,168,4,3,14
1848,104,4730,1,5,1,3,9,2,1762,5,2,14
1849,104,4730,1,5,1,3,9,1,340,6,1,14
1974,104,3535,1,3,1,6,3,1,351,1,7,15
1975,104,3535,1,3,1,6,3,2,493,2,6,15
1976,104,3535,1,3,1,6,3,4,161,3,5,15
1977,104,3535,1,3,1,6,3,3,133,4,4,15
1978,104,3535,1,3,1,6,3,1,310,5,3,15
1979,104,3535,1,3,1,6,3,2,445,6,2,15
1980,104,3535,1,3,1,6,3,1,422,7,1,15
2057,104,2484,0,1,8,3,6,1,216,1,4,16
2058,104,2484,0,1,8,3,6,3,490,2,3,16
2059,104,2484,0,1,8,3,6,2,441,3,2,16
2060,104,2484,0,1,8,3,6,1,213,4,1,16
2103,104,4132,1,5,7,9,1,2,840,1,7,17
2104,104,4132,1,5,7,9,1,1,452,2,6,17
2105,104,4132,1,5,7,9,1,2,544,3,5,17
2106,104,4132,1,5,7,9,1,1,409,4,4,17
2107,104,4132,1,5,7,9,1,4,130,5,3,17
2108,104,4132,1,5,7,9,1,3,122,6,2,17
2109,104,4132,1,5,7,9,1,1,38,7,1,17
2445,104,3231,1,5,3,8,2,1,832,1,4,18
2446,104,3231,1,5,3,8,2,2,657,2,3,18
2447,104,3231,1,5,3,8,2,1,760,3,2,18
2448,104,3231,1,5,3,8,2,3,148,4,1,18
2567,104,6989,0,8,7,7,3,1,349,1,9,19
2568,104,6989,0,8,7,7,3,2,568,2,8,19
2569,104,6989,0,8,7,7,3,3,125,3,7,19
2570,104,6989,0,8,7,7,3,1,586,4,6,19
2571,104,6989,0,8,7,7,3,2,1249,5,5,19
2572,104,6989,0,8,7,7,3,1,1090,6,4,19
2573,104,6989,0,8,7,7,3,2,533,7,3,19
2574,104,6989,0,8,7,7,3,4,492,8,2,19
2575,104,6989,0,8,7,7,3,3,247,9,1,19
2688,104,1886,0,3,9,3,8,2,350,1,3,20
2689,104,1886,0,3,9,3,8,4,113,2,2,20
2690,104,1886,0,3,9,3,8,1,505,3,1,20
2716,104,2181,0,1,9,9,3,2,687,1,3,21
2717,104,2181,0,1,9,9,3,1,387,2,2,21
2718,104,2181,0,1,9,9,3,2,707,3,1,21
2898,104,2416,1,8,9,8,2,1,653,1,4,22
2899,104,2416,1,8,9,8,2,3,118,2,3,22
2900,104,2416,1,8,9,8,2,2,172,3,2,22
2901,104,2416,1,8,9,8,2,1,177,4,1,22
3029,104,3814,1,8,4,4,6,2,368,1,6,23
3030,104,3814,1,8,4,4,6,1,190,2,5,23
3031,104,3814,1,8,4,4,6,3,149,3,4,23
3032,104,3814,1,8,4,4,6,1,592,4,3,23
3033,104,3814,1,8,4,4,6,2,798,5,2,23
3034,104,3814,1,8,4,4,6,1,11,6,1,23
3077,104,2279,1,9,3,7,3,2,513,1,5,24
3078,104,2279,1,9,3,7,3,1,258,2,4,24
3079,104,2279,1,9,3,7,3,3,127,3,3,24
3080,104,2279,1,9,3,7,3,4,295,4,2,24
3081,104,2279,1,9,3,7,3,1,1,5,1,24
3170,104,2093,0,1,8,3,7,2,543,1,2,25
3171,104,2093,0,1,8,3,7,1,413,2,1,25
3196,104,1637,0,2,8,8,3,2,451,1,3,26
3197,104,1637,0,2,8,8,3,1,463,2,2,26
3198,104,1637,0,2,8,8,3,2,334,3,1,26
3308,104,1946,0,2,9,8,3,2,377,1,4,27
3309,104,1946,0,2,9,8,3,1,420,2,3,27
3310,104,1946,0,2,9,8,3,2,450,3,2,27
3311,104,1946,0,2,9,8,3,1,229,4,1,27
3434,104,4560,0,9,3,3,9,1,456,1,8,28
3435,104,4560,0,9,3,3,9,2,635,2,7,28
3436,104,4560,0,9,3,3,9,1,119,3,6,28
3437,104,4560,0,9,3,3,9,2,1649,4,5,28
3438,104,4560,0,9,3,3,9,4,121,5,4,28
3439,104,4560,0,9,3,3,9,3,146,6,3,28
3440,104,4560,0,9,3,3,9,1,331,7,2,28
3441,104,4560,0,9,3,3,9,2,49,8,1,28
3600,104,2489,0,5,5,2,8,1,137,1,5,29
3601,104,2489,0,5,5,2,8,3,307,2,4,29
3602,104,2489,0,5,5,2,8,4,126,3,3,29
3603,104,2489,0,5,5,2,8,3,126,4,2,29
3604,104,2489,0,5,5,2,8,2,742,5,1,29
3716,104,1160,0,5,1,2,9,1,184,1,3,30
3717,104,1160,0,5,1,2,9,3,160,2,2,30
3718,104,1160,0,5,1,2,9,2,435,3,1,30
3859,104,3223,0,2,9,8,3,1,419,1,4,31
3860,104,3223,0,2,9,8,3,2,791,2,3,31
3861,104,3223,0,2,9,8,3,1,825,3,2,31
3862,104,3223,0,2,9,8,3,2,597,4,1,31
3921,104,2584,1,3,6,9,2,2,135,1,6,32
3922,104,2584,1,3,6,9,2,1,322,2,5,32
3923,104,2584,1,3,6,9,2,2,754,3,4,32
3924,104,2584,1,3,6,9,2,4,105,4,3,32
3925,104,2584,1,3,6,9,2,3,177,5,2,32
3926,104,2584,1,3,6,9,2,1,99,6,1,32
4022,104,3750,1,8,2,3,8,1,350,1,6,33
4023,104,3750,1,8,2,3,8,2,194,2,5,33
4024,104,3750,1,8,2,3,8,4,151,3,4,33
4025,104,3750,1,8,2,3,8,2,309,4,3,33
4026,104,3750,1,8,2,3,8,1,1036,5,2,33
4027,104,3750,1,8,2,3,8,2,82,6,1,33
4177,104,1628,0,2,5,4,6,1,237,1,3,34
4178,104,1628,0,2,5,4,6,2,434,2,2,34
4179,104,1628,0,2,5,4,6,3,55,3,1,34
4270,104,2793,1,4,6,8,2,1,479,1,5,35
4271,104,2793,1,4,6,8,2,2,257,2,4,35
4272,104,2793,1,4,6,8,2,1,483,3,3,35
4273,104,2793,1,4,6,8,2,3,105,4,2,35
4274,104,2793,1,4,6,8,2,2,296,5,1,35
4310,104,5360,0,4,9,2,8,2,480,1,7,36
4311,104,5360,0,4,9,2,8,4,176,2,6,36
4312,104,5360,0,4,9,2,8,1,532,3,5,36
4313,104,5360,0,4,9,2,8,3,449,4,4,36
4314,104,5360,0,4,9,2,8,4,688,5,3,36
4315,104,5360,0,4,9,2,8,3,933,6,2,36
4316,104,5360,0,4,9,2,8,4,1186,7,1,36
4345,104,3917,0,4,3,3,9,1,239,1,5,37
4346,104,3917,0,4,3,3,9,2,969,2,4,37
4347,104,3917,0,4,3,3,9,1,1252,3,3,37
4348,104,3917,0,4,3,3,9,2,241,4,2,37
4349,104,3917,0,4,3,3,9,3,90,5,1,37
4578,104,3190,0,1,5,7,2,2,180,1,6,38
4579,104,3190,0,1,5,7,2,1,717,2,5,38
4580,104,3190,0,1,5,7,2,2,457,3,4,38
4581,104,3190,0,1,5,7,2,4,218,4,3,38
4582,104,3190,0,1,5,7,2,3,120,5,2,38
4583,104,3190,0,1,5,7,2,1,428,6,1,38
4686,104,2641,0,4,2,5,8,1,178,1,5,39
4687,104,2641,0,4,2,5,8,3,204,2,4,39
4688,104,2641,0,4,2,5,8,2,313,3,3,39
4689,104,2641,0,4,2,5,8,1,180,4,2,39
4690,104,2641,0,4,2,5,8,2,490,5,1,39
4752,104,2317,0,9,5,3,9,1,593,1,5,40
4753,104,2317,0,9,5,3,9,3,111,2,4,40
4754,104,2317,0,9,5,3,9,4,137,3,3,40
4755,104,2317,0,9,5,3,9,2,407,4,2,40
4756,104,2317,0,9,5,3,9,1,132,5,1,40
4912,104,2799,0,6,9,2,7,2,411,1,5,41
4913,104,2799,0,6,9,2,7,1,463,2,4,41
4914,104,2799,0,6,9,2,7,2,241,3,3,41
4915,104,2799,0,6,9,2,7,4,110,4,2,41
4916,104,2799,0,6,9,2,7,2,244,5,1,41
4976,104,2141,1,6,8,8,3,1,370,1,4,42
4977,104,2141,1,6,8,8,3,3,109,2,3,42
4978,104,2141,1,6,8,8,3,2,400,3,2,42
4979,104,2141,1,6,8,8,3,1,287,4,1,42
5082,104,2891,1,8,8,6,4,1,195,1,5,43
5083,104,2891,1,8,8,6,4,2,363,2,4,43
5084,104,2891,1,8,8,6,4,4,116,3,3,43
5085,104,2891,1,8,8,6,4,3,163,4,2,43
5086,104,2891,1,8,8,6,4,1,1037,5,1,43
5137,104,4381,1,5,9,9,3,1,201,1,5,44
5138,104,4381,1,5,9,9,3,2,605,2,4,44
5139,104,4381,1,5,9,9,3,1,309,3,3,44
5140,104,4381,1,5,9,9,3,2,727,4,2,44
5141,104,4381,1,5,9,9,3,1,980,5,1,44
5383,104,5325,0,2,4,4,6,2,383,1,8,45
5384,104,5325,0,2,4,4,6,1,379,2,7,45
5385,104,5325,0,2,4,4,6,2,453,3,6,45
5386,104,5325,0,2,4,4,6,4,176,4,5,45
5387,104,5325,0,2,4,4,6,2,1007,5,4,45
5388,104,5325,0,2,4,4,6,1,559,6,3,45
5389,104,5325,0,2,4,4,6,2,1160,7,2,45
5390,104,5325,0,2,4,4,6,4,250,8,1,45
5436,104,7485,0,3,8,7,3,1,400,1,12,46
5437,104,7485,0,3,8,7,3,2,555,2,11,46
5438,104,7485,0,3,8,7,3,4,173,3,10,46
5439,104,7485,0,3,8,7,3,3,314,4,9,46
5440,104,7485,0,3,8,7,3,4,310,5,8,46
5441,104,7485,0,3,8,7,3,3,484,6,7,46
5442,104,7485,0,3,8,7,3,4,451,7,6,46
5443,104,7485,0,3,8,7,3,3,714,8,5,46
5444,104,7485,0,3,8,7,3,4,850,9,4,46
5445,104,7485,0,3,8,7,3,3,715,10,3,46
5446,104,7485,0,3,8,7,3,4,603,11,2,46
5447,104,7485,0,3,8,7,3,2,589,12,1,46
5523,104,2218,0,8,5,2,9,2,131,1,3,47
5524,104,2218,0,8,5,2,9,1,295,2,2,47
5525,104,2218,0,8,5,2,9,2,510,3,1,47
5577,104,1470,0,5,9,2,8,2,186,1,3,48
5578,104,1470,0,5,9,2,8,1,333,2,2,48
5579,104,1470,0,5,9,2,8,2,560,3,1,48
5747,104,3036,0,1,8,7,4,2,197,1,5,49
5748,104,3036,0,1,8,7,4,1,442,2,4,49
5749,104,3036,0,1,8,7,4,2,699,3,3,49
5750,104,3036,0,1,8,7,4,4,129,4,2,49
5751,104,3036,0,1,8,7,4,1,175,5,1,49
5974,104,1055,0,2,6,3,8,2,182,1,2,50
5975,104,1055,0,2,6,3,8,1,564,2,1,50
6138,104,5316,0,1,6,9,4,2,621,1,6,51
6139,104,5316,0,1,6,9,4,1,458,2,5,51
6140,104,5316,0,1,6,9,4,3,731,3,4,51
6141,104,5316,0,1,6,9,4,4,607,4,3,51
6142,104,5316,0,1,6,9,4,2,493,5,2,51
6143,104,5316,0,1,6,9,4,1,1036,6,1,51
6235,104,1237,0,5,9,3,8,1,184,1,3,52
6236,104,1237,0,5,9,3,8,2,371,2,2,52
6237,104,1237,0,5,9,3,8,4,130,3,1,52
6307,104,2621,1,8,5,7,2,1,168,1,3,53
6308,104,2621,1,8,5,7,2,2,400,2,2,53
6309,104,2621,1,8,5,7,2,1,967,3,1,53
6502,104,3842,1,8,8,8,4,1,237,1,6,54
6503,104,3842,1,8,8,8,4,2,490,2,5,54
6504,104,3842,1,8,8,8,4,1,724,3,4,54
6505,104,3842,1,8,8,8,4,2,157,4,3,54
6506,104,3842,1,8,8,8,4,3,315,5,2,54
6507,104,3842,1,8,8,8,4,4,439,6,1,54
6594,104,834,1,6,4,8,2,1,225,1,2,55
6595,104,834,1,6,4,8,2,2,335,2,1,55
6648,104,892,1,9,4,8,2,1,325,1,2,56
6649,104,892,1,9,4,8,2,2,285,2,1,56
6712,104,1838,1,3,4,9,5,1,186,1,3,57
6713,104,1838,1,3,4,9,5,2,486,2,2,57
6714,104,1838,1,3,4,9,5,1,703,3,1,57
6772,104,3877,1,8,5,2,9,1,297,1,5,58
6773,104,3877,1,8,5,2,9,2,333,2,4,58
6774,104,3877,1,8,5,2,9,3,1227,3,3,58
6775,104,3877,1,8,5,2,9,1,534,4,2,58
6776,104,3877,1,8,5,2,9,2,267,5,1,58
6861,104,2363,0,1,3,7,3,1,292,1,3,59
6862,104,2363,0,1,3,7,3,2,554,2,2,59
6863,104,2363,0,1,3,7,3,1,829,3,1,59
6890,104,3946,0,4,1,3,9,1,237,1,6,60
6891,104,3946,0,4,1,3,9,2,714,2,5,60
6892,104,3946,0,4,1,3,9,1,621,3,4,60
6893,104,3946,0,4,1,3,9,3,114,4,3,60
6894,104,3946,0,4,1,3,9,2,364,5,2,60
6895,104,3946,0,4,1,3,9,1,310,6,1,60
6991,104,1954,0,3,8,7,3,1,501,1,3,61
6992,104,1954,0,3,8,7,3,2,819,2,2,61
6993,104,1954,0,3,8,7,3,1,81,3,1,61
7067,104,2160,1,9,8,7,2,1,256,1,5,62
7068,104,2160,1,9,8,7,2,2,488,2,4,62
7069,104,2160,1,9,8,7,2,3,172,3,3,62
7070,104,2160,1,9,8,7,2,4,126,4,2,62
7071,104,2160,1,9,8,7,2,1,127,5,1,62
7146,104,2423,0,3,4,2,6,2,306,1,4,63
7147,104,2423,0,3,4,2,6,1,650,2,3,63
7148,104,2423,0,3,4,2,6,2,614,3,2,63
7149,104,2423,0,3,4,2,6,1,214,4,1,63
7177,104,1652,1,2,1,3,9,1,622,1,3,64
7178,104,1652,1,2,1,3,9,2,486,2,2,64
7179,104,1652,1,2,1,3,9,1,162,3,1,64
8868,104,2764,1,1,3,3,9,1,450,1,5,65
8869,104,2764,1,1,3,3,9,2,649,2,4,65
8870,104,2764,1,1,3,3,9,1,715,3,3,65
8871,104,2764,1,1,3,3,9,3,304,4,2,65
8872,104,2764,1,1,3,3,9,4,50,5,1,65
9388,104,1802,1,6,1,4,7,1,650,1,3,66
9389,104,1802,1,6,1,4,7,2,475,2,2,66
9390,104,1802,1,6,1,4,7,1,279,3,1,66
9915,104,4712,1,1,3,9,2,2,147,1,6,67
9916,104,4712,1,1,3,9,2,1,856,2,5,67
9917,104,4712,1,1,3,9,2,4,356,3,4,67
9918,104,4712,1,1,3,9,2,3,1320,4,3,67
9919,104,4712,1,1,3,9,2,1,251,5,2,67
9920,104,4712,1,1,3,9,2,2,700,6,1,67
12499,104,5818,0,3,8,8,3,2,574,1,7,68
12500,104,5818,0,3,8,8,3,1,459,2,6,68
12501,104,5818,0,3,8,8,3,3,416,3,5,68
12502,104,5818,0,3,8,8,3,4,849,4,4,68
12503,104,5818,0,3,8,8,3,3,398,5,3,68
12504,104,5818,0,3,8,8,3,1,766,6,2,68
12505,104,5818,0,3,8,8,3,2,1076,7,1,68
13128,104,5135,0,7,9,3,8,1,418,1,8,69
13129,104,5135,0,7,9,3,8,3,371,2,7,69
13130,104,5135,0,7,9,3,8,4,373,3,6,69
13131,104,5135,0,7,9,3,8,1,568,4,5,69
13132,104,5135,0,7,9,3,8,2,689,5,4,69
13133,104,5135,0,7,9,3,8,4,446,6,3,69
13134,104,5135,0,7,9,3,8,3,930,7,2,69
13135,104,5135,0,7,9,3,8,2,354,8,1,69
13633,104,4237,0,3,9,8,3,1,226,1,6,70
13634,104,4237,0,3,9,8,3,2,909,2,5,70
13635,104,4237,0,3,9,8,3,1,638,3,4,70
13636,104,4237,0,3,9,8,3,4,544,4,3,70
13637,104,4237,0,3,9,8,3,3,686,5,2,70
13638,104,4237,0,3,9,8,3,2,462,6,1,70
15780,104,1820,1,9,5,3,9,2,141,1,3,71
15781,104,1820,1,9,5,3,9,1,601,2,2,71
15782,104,1820,1,9,5,3,9,2,525,3,1,71
15824,104,3179,0,4,9,5,7,1,846,1,4,72
15825,104,3179,0,4,9,5,7,2,518,2,3,72
15826,104,3179,0,4,9,5,7,4,341,3,2,72
15827,104,3179,0,4,9,5,7,3,826,4,1,72
16348,104,5673,0,8,3,2,7,2,965,1,7,73
16349,104,5673,0,8,3,2,7,1,1195,2,6,73
16350,104,5673,0,8,3,2,7,3,379,3,5,73
16351,104,5673,0,8,3,2,7,4,1022,4,4,73
16352,104,5673,0,8,3,2,7,3,785,5,3,73
16353,104,5673,0,8,3,2,7,4,180,6,2,73
16354,104,5673,0,8,3,2,7,2,7,7,1,73
17435,104,2082,0,5,6,3,8,2,174,1,3,74
17436,104,2082,0,5,6,3,8,1,1121,2,2,74
17437,104,2082,0,5,6,3,8,2,271,3,1,74
18439,104,8052,0,3,4,6,2,1,575,1,11,75
18440,104,8052,0,3,4,6,2,2,496,2,10,75
18441,104,8052,0,3,4,6,2,1,603,3,9,75
18442,104,8052,0,3,4,6,2,3,366,4,8,75
18443,104,8052,0,3,4,6,2,4,974,5,7,75
18444,104,8052,0,3,4,6,2,3,539,6,6,75
18445,104,8052,0,3,4,6,2,4,676,7,5,75
18446,104,8052,0,3,4,6,2,1,474,8,4,75
18447,104,8052,0,3,4,6,2,2,466,9,3,75
18448,104,8052,0,3,4,6,2,1,1154,10,2,75
18449,104,8052,0,3,4,6,2,2,186,11,1,75
18948,104,4683,0,3,5,3,8,1,761,1,5,76
18949,104,4683,0,3,5,3,8,2,538,2,4,76
18950,104,4683,0,3,5,3,8,4,208,3,3,76
18951,104,4683,0,3,5,3,8,3,1074,4,2,76
18952,104,4683,0,3,5,3,8,2,968,5,1,76
20355,104,2909,0,5,6,2,8,2,267,1,6,77
20356,104,2909,0,5,6,2,8,1,318,2,5,77
20357,104,2909,0,5,6,2,8,2,603,3,4,77
20358,104,2909,0,5,6,2,8,4,326,4,3,77
20359,104,2909,0,5,6,2,8,3,208,5,2,77
20360,104,2909,0,5,6,2,8,4,26,6,1,77
20388,104,4405,0,7,5,1,8,1,554,1,7,78
20389,104,4405,0,7,5,1,8,2,1239,2,6,78
20390,104,4405,0,7,5,1,8,1,425,3,5,78
20391,104,4405,0,7,5,1,8,3,334,4,4,78
20392,104,4405,0,7,5,1,8,4,102,5,3,78
20393,104,4405,0,7,5,1,8,3,119,6,2,78
20394,104,4405,0,7,5,1,8,4,288,7,1,78
20469,104,5726,0,5,3,2,6,2,446,1,8,79
20470,104,5726,0,5,3,2,6,1,516,2,7,79
20471,104,5726,0,5,3,2,6,2,767,3,6,79
20472,104,5726,0,5,3,2,6,4,155,4,5,79
20473,104,5726,0,5,3,2,6,1,558,5,4,79
20474,104,5726,0,5,3,2,6,2,704,6,3,79
20475,104,5726,0,5,3,2,6,3,603,7,2,79
20476,104,5726,0,5,3,2,6,4,478,8,1,79
20637,104,2055,1,9,3,2,6,2,199,1,5,80
20638,104,2055,1,9,3,2,6,1,305,2,4,80
20639,104,2055,1,9,3,2,6,2,506,3,3,80
20640,104,2055,1,9,3,2,6,4,163,4,2,80
20641,104,2055,1,9,3,2,6,3,328,5,1,80
20715,104,1763,1,4,1,8,3,2,377,1,2,81
20716,104,1763,1,4,1,8,3,1,1007,2,1,81
20842,104,3984,1,5,6,6,2,2,862,1,6,82
20843,104,3984,1,5,6,6,2,1,519,2,5,82
20844,104,3984,1,5,6,6,2,2,477,3,4,82
20845,104,3984,1,5,6,6,2,4,351,4,3,82
20846,104,3984,1,5,6,6,2,3,368,5,2,82
20847,104,3984,1,5,6,6,2,1,453,6,1,82
20884,104,2317,1,3,9,8,3,1,347,1,5,83
20885,104,2317,1,3,9,8,3,2,495,2,4,83
20886,104,2317,1,3,9,8,3,4,215,3,3,83
20887,104,2317,1,3,9,8,3,3,162,4,2,83
20888,104,2317,1,3,9,8,3,1,61,5,1,83
20937,104,2916,1,2,3,8,2,1,757,1,4,84
20938,104,2916,1,2,3,8,2,2,580,2,3,84
20939,104,2916,1,2,3,8,2,4,874,3,2,84
20940,104,2916,1,2,3,8,2,1,78,4,1,84
21158,104,1578,0,5,5,2,9,2,460,1,3,85
21159,104,1578,0,5,5,2,9,1,482,2,2,85
21160,104,1578,0,5,5,2,9,2,280,3,1,85
21353,104,6728,1,2,1,8,3,1,491,1,8,86
21354,104,6728,1,2,1,8,3,2,484,2,7,86
21355,104,6728,1,2,1,8,3,1,563,3,6,86
21356,104,6728,1,2,1,8,3,3,165,4,5,86
21357,104,6728,1,2,1,8,3,4,365,5,4,86
21358,104,6728,1,2,1,8,3,3,358,6,3,86
21359,104,6728,1,2,1,8,3,2,724,7,2,86
21360,104,6728,1,2,1,8,3,1,2677,8,1,86
21454,104,2096,0,3,8,2,7,1,248,1,3,87
21455,104,2096,0,3,8,2,7,2,483,2,2,87
21456,104,2096,0,3,8,2,7,4,133,3,1,87
21505,104,2626,1,2,3,8,2,2,131,1,5,88
21506,104,2626,1,2,3,8,2,1,527,2,4,88
21507,104,2626,1,2,3,8,2,2,345,3,3,88
21508,104,2626,1,2,3,8,2,3,434,4,2,88
21509,104,2626,1,2,3,8,2,1,44,5,1,88
21682,104,4799,1,9,6,8,4,1,298,1,6,89
21683,104,4799,1,9,6,8,4,2,382,2,5,89
21684,104,4799,1,9,6,8,4,3,388,3,4,89
21685,104,4799,1,9,6,8,4,1,181,4,3,89
21686,104,4799,1,9,6,8,4,3,179,5,2,89
21687,104,4799,1,9,6,8,4,1,2042,6,1,89
21985,104,6918,0,3,7,6,3,1,349,1,8,90
21986,104,6918,0,3,7,6,3,2,566,2,7,90
21987,104,6918,0,3,7,6,3,4,171,3,6,90
21988,104,6918,0,3,7,6,3,3,334,4,5,90
21989,104,6918,0,3,7,6,3,2,1562,5,4,90
21990,104,6918,0,3,7,6,3,4,719,6,3,90
21991,104,6918,0,3,7,6,3,3,816,7,2,90
21992,104,6918,0,3,7,6,3,1,340,8,1,90
22429,104,4291,0,5,8,6,4,1,335,1,7,91
22430,104,4291,0,5,8,6,4,2,1041,2,6,91
22431,104,4291,0,5,8,6,4,4,264,3,5,91
22432,104,4291,0,5,8,6,4,3,155,4,4,91
22433,104,4291,0,5,8,6,4,1,472,5,3,91
22434,104,4291,0,5,8,6,4,2,856,6,2,91
22435,104,4291,0,5,8,6,4,4,136,7,1,91
22550,104,1604,0,5,9,2,7,2,295,1,3,92
22551,104,1604,0,5,9,2,7,1,401,2,2,92
22552,104,1604,0,5,9,2,7,2,534,3,1,92
22620,104,3155,1,9,9,7,3,2,469,1,4,93
22621,104,3155,1,9,9,7,3,1,705,2,3,93
22622,104,3155,1,9,9,7,3,3,207,3,2,93
22623,104,3155,1,9,9,7,3,2,445,4,1,93
22639,104,1568,1,9,3,8,3,1,349,1,3,94
22640,104,1568,1,9,3,8,3,2,799,2,2,94
22641,104,1568,1,9,3,8,3,3,38,3,1,94
22676,104,4615,0,1,9,7,3,1,817,1,5,95
22677,104,4615,0,1,9,7,3,2,280,2,4,95
22678,104,4615,0,1,9,7,3,1,906,3,3,95
22679,104,4615,0,1,9,7,3,2,1035,4,2,95
22680,104,4615,0,1,9,7,3,4,815,5,1,95
7517,105,3911,1,4,7,9,2,1,597,1,7,1
7518,105,3911,1,4,7,9,2,2,883,2,6,1
7519,105,3911,1,4,7,9,2,1,329,3,5,1
7520,105,3911,1,4,7,9,2,3,470,4,4,1
7521,105,3911,1,4,7,9,2,4,487,5,3,1
7522,105,3911,1,4,7,9,2,3,277,6,2,1
7523,105,3911,1,4,7,9,2,1,159,7,1,1
7562,105,4430,0,5,6,4,8,1,577,1,7,2
7563,105,4430,0,5,6,4,8,2,857,2,6,2
7564,105,4430,0,5,6,4,8,1,351,3,5,2
7565,105,4430,0,5,6,4,8,4,671,4,4,2
7566,105,4430,0,5,6,4,8,3,679,5,3,2
7567,105,4430,0,5,6,4,8,4,378,6,2,2
7568,105,4430,0,5,6,4,8,2,41,7,1,2
7680,105,8990,0,2,8,8,1,2,309,1,11,3
7681,105,8990,0,2,8,8,1,1,462,2,10,3
7682,105,8990,0,2,8,8,1,3,588,3,9,3
7683,105,8990,0,2,8,8,1,4,1613,4,8,3
7684,105,8990,0,2,8,8,1,2,688,5,7,3
7685,105,8990,0,2,8,8,1,4,1778,6,6,3
7686,105,8990,0,2,8,8,1,3,1029,7,5,3
7687,105,8990,0,2,8,8,1,4,272,8,4,3
7688,105,8990,0,2,8,8,1,2,215,9,3,3
7689,105,8990,0,2,8,8,1,1,256,10,2,3
7690,105,8990,0,2,8,8,1,2,323,11,1,3
7761,105,3932,0,5,4,2,9,2,826,1,6,4
7762,105,3932,0,5,4,2,9,4,362,2,5,4
7763,105,3932,0,5,4,2,9,1,713,3,4,4
7764,105,3932,0,5,4,2,9,3,541,4,3,4
7765,105,3932,0,5,4,2,9,4,430,5,2,4
7766,105,3932,0,5,4,2,9,2,275,6,1,4
7814,105,5042,0,7,7,2,8,1,468,1,6,5
7815,105,5042,0,7,7,2,8,2,1476,2,5,5
7816,105,5042,0,7,7,2,8,1,637,3,4,5
7817,105,5042,0,7,7,2,8,3,468,4,3,5
7818,105,5042,0,7,7,2,8,4,894,5,2,5
7819,105,5042,0,7,7,2,8,2,359,6,1,5
7846,105,5915,0,2,3,2,8,1,889,1,8,6
7847,105,5915,0,2,3,2,8,3,1288,2,7,6
7848,105,5915,0,2,3,2,8,4,664,3,6,6
7849,105,5915,0,2,3,2,8,3,417,4,5,6
7850,105,5915,0,2,3,2,8,4,437,5,4,6
7851,105,5915,0,2,3,2,8,3,546,6,3,6
7852,105,5915,0,2,3,2,8,4,190,7,2,6
7853,105,5915,0,2,3,2,8,2,546,8,1,6
7988,105,5419,0,7,8,3,6,1,879,1,10,7
7989,105,5419,0,7,8,3,6,3,795,2,9,7
7990,105,5419,0,7,8,3,6,4,420,3,8,7
7991,105,5419,0,7,8,3,6,3,201,4,7,7
7992,105,5419,0,7,8,3,6,1,58,5,6,7
7993,105,5419,0,7,8,3,6,2,507,6,5,7
7994,105,5419,0,7,8,3,6,4,498,7,4,7
7995,105,5419,0,7,8,3,6,3,472,8,3,7
7996,105,5419,0,7,8,3,6,4,438,9,2,7
7997,105,5419,0,7,8,3,6,2,122,10,1,7
8081,105,7836,1,6,6,7,2,1,862,1,7,8
8082,105,7836,1,6,6,7,2,3,3450,2,6,8
8083,105,7836,1,6,6,7,2,4,522,3,5,8
8084,105,7836,1,6,6,7,2,3,442,4,4,8
8085,105,7836,1,6,6,7,2,4,647,5,3,8
8086,105,7836,1,6,6,7,2,3,420,6,2,8
8087,105,7836,1,6,6,7,2,1,518,7,1,8
8230,105,3542,1,6,1,8,3,1,592,1,7,9
8231,105,3542,1,6,1,8,3,3,512,2,6,9
8232,105,3542,1,6,1,8,3,1,213,3,5,9
8233,105,3542,1,6,1,8,3,4,480,4,4,9
8234,105,3542,1,6,1,8,3,2,475,5,3,9
8235,105,3542,1,6,1,8,3,4,244,6,2,9
8236,105,3542,1,6,1,8,3,1,306,7,1,9
8536,105,6050,0,2,6,2,7,1,327,1,11,10
8537,105,6050,0,2,6,2,7,3,270,2,10,10
8538,105,6050,0,2,6,2,7,1,539,3,9,10
8539,105,6050,0,2,6,2,7,2,852,4,8,10
8540,105,6050,0,2,6,2,7,4,299,5,7,10
8541,105,6050,0,2,6,2,7,3,1090,6,6,10
8542,105,6050,0,2,6,2,7,1,613,7,5,10
8543,105,6050,0,2,6,2,7,2,195,8,4,10
8544,105,6050,0,2,6,2,7,4,345,9,3,10
8545,105,6050,0,2,6,2,7,3,215,10,2,10
8546,105,6050,0,2,6,2,7,2,148,11,1,10
8601,105,5144,1,6,8,7,2,1,519,1,9,11
8602,105,5144,1,6,8,7,2,3,351,2,8,11
8603,105,5144,1,6,8,7,2,4,512,3,7,11
8604,105,5144,1,6,8,7,2,3,571,4,6,11
8605,105,5144,1,6,8,7,2,4,322,5,5,11
8606,105,5144,1,6,8,7,2,2,264,6,4,11
8607,105,5144,1,6,8,7,2,1,370,7,3,11
8608,105,5144,1,6,8,7,2,2,655,8,2,11
8609,105,5144,1,6,8,7,2,1,517,9,1,11
9071,105,3271,0,7,4,3,9,1,371,1,4,12
9072,105,3271,0,7,4,3,9,3,649,2,3,12
9073,105,3271,0,7,4,3,9,4,382,3,2,12
9074,105,3271,0,7,4,3,9,2,1322,4,1,12
9172,105,7937,1,7,5,2,6,1,517,1,10,13
9173,105,7937,1,7,5,2,6,2,476,2,9,13
9174,105,7937,1,7,5,2,6,4,405,3,8,13
9175,105,7937,1,7,5,2,6,3,363,4,7,13
9176,105,7937,1,7,5,2,6,1,804,5,6,13
9177,105,7937,1,7,5,2,6,4,523,6,5,13
9178,105,7937,1,7,5,2,6,2,1997,7,4,13
9179,105,7937,1,7,5,2,6,4,398,8,3,13
9180,105,7937,1,7,5,2,6,3,458,9,2,13
9181,105,7937,1,7,5,2,6,1,658,10,1,13
9215,105,4545,1,9,4,3,9,1,385,1,8,14
9216,105,4545,1,9,4,3,9,3,528,2,7,14
9217,105,4545,1,9,4,3,9,1,412,3,6,14
9218,105,4545,1,9,4,3,9,2,358,4,5,14
9219,105,4545,1,9,4,3,9,1,262,5,4,14
9220,105,4545,1,9,4,3,9,4,297,6,3,14
9221,105,4545,1,9,4,3,9,2,358,7,2,14
9222,105,4545,1,9,4,3,9,1,963,8,1,14
9338,105,4955,0,9,6,3,7,1,326,1,9,15
9339,105,4955,0,9,6,3,7,3,485,2,8,15
9340,105,4955,0,9,6,3,7,4,285,3,7,15
9341,105,4955,0,9,6,3,7,2,610,4,6,15
9342,105,4955,0,9,6,3,7,4,313,5,5,15
9343,105,4955,0,9,6,3,7,3,536,6,4,15
9344,105,4955,0,9,6,3,7,1,454,7,3,15
9345,105,4955,0,9,6,3,7,3,218,8,2,15
9346,105,4955,0,9,6,3,7,2,775,9,1,15
9561,105,2296,1,9,8,8,2,1,424,1,5,16
9562,105,2296,1,9,8,8,2,3,265,2,4,16
9563,105,2296,1,9,8,8,2,1,335,3,3,16
9564,105,2296,1,9,8,8,2,2,280,4,2,16
9565,105,2296,1,9,8,8,2,1,319,5,1,16
9602,105,5648,1,8,8,8,4,1,469,1,9,17
9603,105,5648,1,8,8,8,4,3,412,2,8,17
9604,105,5648,1,8,8,8,4,1,379,3,7,17
9605,105,5648,1,8,8,8,4,2,395,4,6,17
9606,105,5648,1,8,8,8,4,4,301,5,5,17
9607,105,5648,1,8,8,8,4,3,1138,6,4,17
9608,105,5648,1,8,8,8,4,4,703,7,3,17
9609,105,5648,1,8,8,8,4,3,278,8,2,17
9610,105,5648,1,8,8,8,4,1,509,9,1,17
9682,105,7793,0,5,5,7,4,1,330,1,11,18
9683,105,7793,0,5,5,7,4,2,1093,2,10,18
9684,105,7793,0,5,5,7,4,4,331,3,9,18
9685,105,7793,0,5,5,7,4,2,612,4,8,18
9686,105,7793,0,5,5,7,4,4,498,5,7,18
9687,105,7793,0,5,5,7,4,3,954,6,6,18
9688,105,7793,0,5,5,7,4,1,685,7,5,18
9689,105,7793,0,5,5,7,4,3,372,8,4,18
9690,105,7793,0,5,5,7,4,4,382,9,3,18
9691,105,7793,0,5,5,7,4,3,161,10,2,18
9692,105,7793,0,5,5,7,4,2,1014,11,1,18
9813,105,5827,1,7,5,2,7,1,332,1,9,19
9814,105,5827,1,7,5,2,7,3,706,2,8,19
9815,105,5827,1,7,5,2,7,1,152,3,7,19
9816,105,5827,1,7,5,2,7,2,495,4,6,19
9817,105,5827,1,7,5,2,7,4,494,5,5,19
9818,105,5827,1,7,5,2,7,3,635,6,4,19
9819,105,5827,1,7,5,2,7,4,381,7,3,19
9820,105,5827,1,7,5,2,7,2,617,8,2,19
9821,105,5827,1,7,5,2,7,1,1017,9,1,19
10079,105,5887,1,7,8,8,1,1,438,1,8,20
10080,105,5887,1,7,8,8,1,3,976,2,7,20
10081,105,5887,1,7,8,8,1,4,383,3,6,20
10082,105,5887,1,7,8,8,1,2,1334,4,5,20
10083,105,5887,1,7,8,8,1,4,374,5,4,20
10084,105,5887,1,7,8,8,1,1,172,6,3,20
10085,105,5887,1,7,8,8,1,3,439,7,2,20
10086,105,5887,1,7,8,8,1,1,745,8,1,20
10144,105,3047,1,9,5,7,4,1,295,1,5,21
10145,105,3047,1,9,5,7,4,3,498,2,4,21
10146,105,3047,1,9,5,7,4,4,396,3,3,21
10147,105,3047,1,9,5,7,4,2,924,4,2,21
10148,105,3047,1,9,5,7,4,1,375,5,1,21
10235,105,4590,0,9,8,3,6,1,355,1,6,22
10236,105,4590,0,9,8,3,6,2,416,2,5,22
10237,105,4590,0,9,8,3,6,4,290,3,4,22
10238,105,4590,0,9,8,3,6,3,835,4,3,22
10239,105,4590,0,9,8,3,6,4,1159,5,2,22
10240,105,4590,0,9,8,3,6,3,603,6,1,22
10281,105,4814,1,7,5,6,3,1,399,1,9,23
10282,105,4814,1,7,5,6,3,3,396,2,8,23
10283,105,4814,1,7,5,6,3,4,356,3,7,23
10284,105,4814,1,7,5,6,3,2,269,4,6,23
10285,105,4814,1,7,5,6,3,4,395,5,5,23
10286,105,4814,1,7,5,6,3,3,484,6,4,23
10287,105,4814,1,7,5,6,3,4,824,7,3,23
10288,105,4814,1,7,5,6,3,3,249,8,2,23
10289,105,4814,1,7,5,6,3,1,309,9,1,23
10587,105,3644,1,6,7,7,2,1,590,1,5,24
10588,105,3644,1,6,7,7,2,2,527,2,4,24
10589,105,3644,1,6,7,7,2,4,396,3,3,24
10590,105,3644,1,6,7,7,2,3,781,4,2,24
10591,105,3644,1,6,7,7,2,1,660,5,1,24
10698,105,1905,0,8,7,2,8,1,506,1,2,25
10699,105,1905,0,8,7,2,8,2,1043,2,1,25
10839,105,6474,0,4,6,3,6,1,482,1,10,26
10840,105,6474,0,4,6,3,6,2,406,2,9,26
10841,105,6474,0,4,6,3,6,4,299,3,8,26
10842,105,6474,0,4,6,3,6,3,936,4,7,26
10843,105,6474,0,4,6,3,6,4,958,5,6,26
10844,105,6474,0,4,6,3,6,3,453,6,5,26
10845,105,6474,0,4,6,3,6,1,325,7,4,26
10846,105,6474,0,4,6,3,6,3,303,8,3,26
10847,105,6474,0,4,6,3,6,1,736,9,2,26
10848,105,6474,0,4,6,3,6,2,401,10,1,26
10868,105,3651,0,8,6,2,7,1,417,1,6,27
10869,105,3651,0,8,6,2,7,3,699,2,5,27
10870,105,3651,0,8,6,2,7,4,954,3,4,27
10871,105,3651,0,8,6,2,7,3,314,4,3,27
10872,105,3651,0,8,6,2,7,1,128,5,2,27
10873,105,3651,0,8,6,2,7,2,283,6,1,27
11083,105,7289,1,4,5,8,3,1,896,1,9,28
11084,105,7289,1,4,5,8,3,2,1076,2,8,28
11085,105,7289,1,4,5,8,3,4,411,3,7,28
11086,105,7289,1,4,5,8,3,3,565,4,6,28
11087,105,7289,1,4,5,8,3,1,184,5,5,28
11088,105,7289,1,4,5,8,3,3,1353,6,4,28
11089,105,7289,1,4,5,8,3,4,490,7,3,28
11090,105,7289,1,4,5,8,3,2,715,8,2,28
11091,105,7289,1,4,5,8,3,1,373,9,1,28
11207,105,2037,1,9,2,7,2,1,672,1,4,29
11208,105,2037,1,9,2,7,2,2,288,2,3,29
11209,105,2037,1,9,2,7,2,4,126,3,2,29
11210,105,2037,1,9,2,7,2,1,382,4,1,29
11259,105,3351,0,8,4,2,6,1,189,1,5,30
11260,105,3351,0,8,4,2,6,2,371,2,4,30
11261,105,3351,0,8,4,2,6,3,700,3,3,30
11262,105,3351,0,8,4,2,6,4,931,4,2,30
11263,105,3351,0,8,4,2,6,2,553,5,1,30
11409,105,3996,0,5,6,3,8,1,550,1,6,31
11410,105,3996,0,5,6,3,8,2,391,2,5,31
11411,105,3996,0,5,6,3,8,4,306,3,4,31
11412,105,3996,0,5,6,3,8,3,618,4,3,31
11413,105,3996,0,5,6,3,8,4,705,5,2,31
11414,105,3996,0,5,6,3,8,2,590,6,1,31
11471,105,3271,1,4,6,8,3,1,381,1,5,32
11472,105,3271,1,4,6,8,3,3,300,2,4,32
11473,105,3271,1,4,6,8,3,4,491,3,3,32
11474,105,3271,1,4,6,8,3,2,862,4,2,32
11475,105,3271,1,4,6,8,3,1,434,5,1,32
11544,105,7770,1,5,7,7,2,1,326,1,11,33
11545,105,7770,1,5,7,7,2,3,123,2,10,33
11546,105,7770,1,5,7,7,2,1,265,3,9,33
11547,105,7770,1,5,7,7,2,2,522,4,8,33
11548,105,7770,1,5,7,7,2,4,588,5,7,33
11549,105,7770,1,5,7,7,2,3,1470,6,6,33
11550,105,7770,1,5,7,7,2,1,279,7,5,33
11551,105,7770,1,5,7,7,2,2,882,8,4,33
11552,105,7770,1,5,7,7,2,4,486,9,3,33
11553,105,7770,1,5,7,7,2,3,737,10,2,33
11554,105,7770,1,5,7,7,2,1,508,11,1,33
11678,105,4919,1,8,5,9,2,1,1789,1,5,34
11679,105,4919,1,8,5,9,2,3,1097,2,4,34
11680,105,4919,1,8,5,9,2,2,791,3,3,34
11681,105,4919,1,8,5,9,2,4,298,4,2,34
11682,105,4919,1,8,5,9,2,1,166,5,1,34
11873,105,8494,1,5,5,3,6,1,1074,1,12,35
11874,105,8494,1,5,5,3,6,3,535,2,11,35
11875,105,8494,1,5,5,3,6,4,544,3,10,35
11876,105,8494,1,5,5,3,6,2,1104,4,9,35
11877,105,8494,1,5,5,3,6,4,517,5,8,35
11878,105,8494,1,5,5,3,6,3,680,6,7,35
11879,105,8494,1,5,5,3,6,1,221,7,6,35
11880,105,8494,1,5,5,3,6,2,345,8,5,35
11881,105,8494,1,5,5,3,6,4,319,9,4,35
11882,105,8494,1,5,5,3,6,3,255,10,3,35
11883,105,8494,1,5,5,3,6,1,1081,11,2,35
11884,105,8494,1,5,5,3,6,2,145,12,1,35
11979,105,7370,0,6,9,7,3,1,450,1,10,36
11980,105,7370,0,6,9,7,3,3,253,2,9,36
11981,105,7370,0,6,9,7,3,2,603,3,8,36
11982,105,7370,0,6,9,7,3,4,299,4,7,36
11983,105,7370,0,6,9,7,3,3,983,5,6,36
11984,105,7370,0,6,9,7,3,1,859,6,5,36
11985,105,7370,0,6,9,7,3,4,653,7,4,36
11986,105,7370,0,6,9,7,3,3,537,8,3,36
11987,105,7370,0,6,9,7,3,1,302,9,2,36
11988,105,7370,0,6,9,7,3,2,841,10,1,36
12124,105,5948,1,6,9,7,3,1,528,1,8,37
12125,105,5948,1,6,9,7,3,3,107,2,7,37
12126,105,5948,1,6,9,7,3,4,237,3,6,37
12127,105,5948,1,6,9,7,3,2,830,4,5,37
12128,105,5948,1,6,9,7,3,4,656,5,4,37
12129,105,5948,1,6,9,7,3,3,1008,6,3,37
12130,105,5948,1,6,9,7,3,4,654,7,2,37
12131,105,5948,1,6,9,7,3,1,438,8,1,37
12165,105,1936,1,7,2,8,2,1,550,1,3,38
12166,105,1936,1,7,2,8,2,2,564,2,2,38
12167,105,1936,1,7,2,8,2,1,292,3,1,38
12429,105,7417,1,9,6,7,3,1,2715,1,6,39
12430,105,7417,1,9,6,7,3,3,335,2,5,39
12431,105,7417,1,9,6,7,3,4,1867,3,4,39
12432,105,7417,1,9,6,7,3,3,842,4,3,39
12433,105,7417,1,9,6,7,3,2,247,5,2,39
12434,105,7417,1,9,6,7,3,1,24,6,1,39
12546,105,7279,0,7,5,2,9,1,268,1,12,40
12547,105,7279,0,7,5,2,9,3,541,2,11,40
12548,105,7279,0,7,5,2,9,4,282,3,10,40
12549,105,7279,0,7,5,2,9,2,762,4,9,40
12550,105,7279,0,7,5,2,9,1,850,5,8,40
12551,105,7279,0,7,5,2,9,3,245,6,7,40
12552,105,7279,0,7,5,2,9,4,832,7,6,40
12553,105,7279,0,7,5,2,9,2,544,8,5,40
12554,105,7279,0,7,5,2,9,1,295,9,4,40
12555,105,7279,0,7,5,2,9,3,330,10,3,40
12556,105,7279,0,7,5,2,9,4,574,11,2,40
12557,105,7279,0,7,5,2,9,2,253,12,1,40
12637,105,3722,0,7,6,2,6,1,150,1,7,41
12638,105,3722,0,7,6,2,6,3,339,2,6,41
12639,105,3722,0,7,6,2,6,4,536,3,5,41
12640,105,3722,0,7,6,2,6,2,1009,4,4,41
12641,105,3722,0,7,6,2,6,4,427,5,3,41
12642,105,3722,0,7,6,2,6,2,154,6,2,41
12643,105,3722,0,7,6,2,6,1,59,7,1,41
12727,105,6227,1,6,7,6,2,1,246,1,9,42
12728,105,6227,1,6,7,6,2,3,1520,2,8,42
12729,105,6227,1,6,7,6,2,1,361,3,7,42
12730,105,6227,1,6,7,6,2,3,484,4,6,42
12731,105,6227,1,6,7,6,2,1,102,5,5,42
12732,105,6227,1,6,7,6,2,2,224,6,4,42
12733,105,6227,1,6,7,6,2,4,1245,7,3,42
12734,105,6227,1,6,7,6,2,3,638,8,2,42
12735,105,6227,1,6,7,6,2,1,106,9,1,42
12795,105,3088,0,6,9,3,7,1,198,1,7,43
12796,105,3088,0,6,9,3,7,3,118,2,6,43
12797,105,3088,0,6,9,3,7,1,203,3,5,43
12798,105,3088,0,6,9,3,7,2,315,4,4,43
12799,105,3088,0,6,9,3,7,4,892,5,3,43
12800,105,3088,0,6,9,3,7,2,216,6,2,43
12801,105,3088,0,6,9,3,7,1,55,7,1,43
12953,105,4221,0,7,8,3,9,1,312,1,7,44
12954,105,4221,0,7,8,3,9,3,673,2,6,44
12955,105,4221,0,7,8,3,9,1,235,3,5,44
12956,105,4221,0,7,8,3,9,2,346,4,4,44
12957,105,4221,0,7,8,3,9,4,582,5,3,44
12958,105,4221,0,7,8,3,9,1,602,6,2,44
12959,105,4221,0,7,8,3,9,2,570,7,1,44
13272,105,3212,1,8,6,6,3,1,649,1,5,45
13273,105,3212,1,8,6,6,3,2,559,2,4,45
13274,105,3212,1,8,6,6,3,4,376,3,3,45
13275,105,3212,1,8,6,6,3,3,612,4,2,45
13276,105,3212,1,8,6,6,3,1,422,5,1,45
13402,105,2074,0,4,8,3,9,1,427,1,6,46
13403,105,2074,0,4,8,3,9,2,293,2,5,46
13404,105,2074,0,4,8,3,9,4,259,3,4,46
13405,105,2074,0,4,8,3,9,3,130,4,3,46
13406,105,2074,0,4,8,3,9,1,114,5,2,46
13407,105,2074,0,4,8,3,9,2,285,6,1,46
13489,105,6107,0,9,4,3,6,1,297,1,11,47
13490,105,6107,0,9,4,3,6,3,317,2,10,47
13491,105,6107,0,9,4,3,6,4,281,3,9,47
13492,105,6107,0,9,4,3,6,2,335,4,8,47
13493,105,6107,0,9,4,3,6,1,346,5,7,47
13494,105,6107,0,9,4,3,6,3,420,6,6,47
13495,105,6107,0,9,4,3,6,4,824,7,5,47
13496,105,6107,0,9,4,3,6,3,293,8,4,47
13497,105,6107,0,9,4,3,6,2,401,9,3,47
13498,105,6107,0,9,4,3,6,1,513,10,2,47
13499,105,6107,0,9,4,3,6,2,506,11,1,47
13537,105,6732,1,3,7,8,2,1,383,1,11,48
13538,105,6732,1,3,7,8,2,3,279,2,10,48
13539,105,6732,1,3,7,8,2,4,274,3,9,48
13540,105,6732,1,3,7,8,2,2,481,4,8,48
13541,105,6732,1,3,7,8,2,1,1236,5,7,48
13542,105,6732,1,3,7,8,2,3,257,6,6,48
13543,105,6732,1,3,7,8,2,4,687,7,5,48
13544,105,6732,1,3,7,8,2,2,464,8,4,48
13545,105,6732,1,3,7,8,2,4,445,9,3,48
13546,105,6732,1,3,7,8,2,2,178,10,2,48
13547,105,6732,1,3,7,8,2,1,338,11,1,48
13602,105,3071,1,8,7,9,2,1,372,1,5,49
13603,105,3071,1,8,7,9,2,3,143,2,4,49
13604,105,3071,1,8,7,9,2,4,144,3,3,49
13605,105,3071,1,8,7,9,2,2,610,4,2,49
13606,105,3071,1,8,7,9,2,1,1146,5,1,49
13668,105,3114,1,8,1,8,3,1,303,1,5,50
13669,105,3114,1,8,1,8,3,3,115,2,4,50
13670,105,3114,1,8,1,8,3,4,442,3,3,50
13671,105,3114,1,8,1,8,3,2,637,4,2,50
13672,105,3114,1,8,1,8,3,1,831,5,1,50
13758,105,3749,0,7,5,2,9,1,131,1,8,51
13759,105,3749,0,7,5,2,9,3,224,2,7,51
13760,105,3749,0,7,5,2,9,4,345,3,6,51
13761,105,3749,0,7,5,2,9,2,298,4,5,51
13762,105,3749,0,7,5,2,9,4,172,5,4,51
13763,105,3749,0,7,5,2,9,3,595,6,3,51
13764,105,3749,0,7,5,2,9,4,463,7,2,51
13765,105,3749,0,7,5,2,9,2,208,8,1,51
13849,105,2869,1,7,5,8,3,1,383,1,6,52
13850,105,2869,1,7,5,8,3,3,109,2,5,52
13851,105,2869,1,7,5,8,3,2,744,3,4,52
13852,105,2869,1,7,5,8,3,1,102,4,3,52
13853,105,2869,1,7,5,8,3,4,206,5,2,52
13854,105,2869,1,7,5,8,3,1,168,6,1,52
13955,105,5334,1,8,8,6,4,1,441,1,7,53
13956,105,5334,1,8,8,6,4,3,1509,2,6,53
13957,105,5334,1,8,8,6,4,4,335,3,5,53
13958,105,5334,1,8,8,6,4,3,177,4,4,53
13959,105,5334,1,8,8,6,4,4,552,5,3,53
13960,105,5334,1,8,8,6,4,2,284,6,2,53
13961,105,5334,1,8,8,6,4,1,653,7,1,53
14118,105,2351,1,8,7,6,2,1,376,1,5,54
14119,105,2351,1,8,7,6,2,2,160,2,4,54
14120,105,2351,1,8,7,6,2,4,440,3,3,54
14121,105,2351,1,8,7,6,2,3,517,4,2,54
14122,105,2351,1,8,7,6,2,1,246,5,1,54
14344,105,6033,1,6,5,7,3,1,540,1,7,55
14345,105,6033,1,6,5,7,3,3,216,2,6,55
14346,105,6033,1,6,5,7,3,1,2485,3,5,55
14347,105,6033,1,6,5,7,3,3,135,4,4,55
14348,105,6033,1,6,5,7,3,2,315,5,3,55
14349,105,6033,1,6,5,7,3,4,616,6,2,55
14350,105,6033,1,6,5,7,3,3,380,7,1,55
14444,105,2355,1,8,5,8,3,1,153,1,5,56
14445,105,2355,1,8,5,8,3,2,242,2,4,56
14446,105,2355,1,8,5,8,3,4,599,3,3,56
14447,105,2355,1,8,5,8,3,3,382,4,2,56
14448,105,2355,1,8,5,8,3,1,253,5,1,56
14523,105,5650,1,2,5,7,3,1,662,1,8,57
14524,105,5650,1,2,5,7,3,3,145,2,7,57
14525,105,5650,1,2,5,7,3,2,556,3,6,57
14526,105,5650,1,2,5,7,3,4,411,4,5,57
14527,105,5650,1,2,5,7,3,3,681,5,4,57
14528,105,5650,1,2,5,7,3,1,593,6,3,57
14529,105,5650,1,2,5,7,3,2,972,7,2,57
14530,105,5650,1,2,5,7,3,1,542,8,1,57
14575,105,2891,1,7,7,8,2,1,378,1,5,58
14576,105,2891,1,7,7,8,2,2,484,2,4,58
14577,105,2891,1,7,7,8,2,4,705,3,3,58
14578,105,2891,1,7,7,8,2,3,311,4,2,58
14579,105,2891,1,7,7,8,2,1,354,5,1,58
14715,105,1124,1,8,5,6,3,1,307,1,3,59
14716,105,1124,1,8,5,6,3,2,312,2,2,59
14717,105,1124,1,8,5,6,3,1,167,3,1,59
14829,105,2384,1,7,5,8,4,1,431,1,5,60
14830,105,2384,1,7,5,8,4,2,232,2,4,60
14831,105,2384,1,7,5,8,4,4,431,3,3,60
14832,105,2384,1,7,5,8,4,3,626,4,2,60
14833,105,2384,1,7,5,8,4,1,39,5,1,60
14980,105,5821,1,6,8,7,4,1,405,1,9,61
14981,105,5821,1,6,8,7,4,4,179,2,8,61
14982,105,5821,1,6,8,7,4,2,563,3,7,61
14983,105,5821,1,6,8,7,4,1,195,4,6,61
14984,105,5821,1,6,8,7,4,3,1266,5,5,61
14985,105,5821,1,6,8,7,4,1,155,6,4,61
14986,105,5821,1,6,8,7,4,2,160,7,3,61
14987,105,5821,1,6,8,7,4,4,393,8,2,61
14988,105,5821,1,6,8,7,4,1,1126,9,1,61
15108,105,4823,0,8,2,2,7,1,780,1,7,62
15109,105,4823,0,8,2,2,7,3,139,2,6,62
15110,105,4823,0,8,2,2,7,2,466,3,5,62
15111,105,4823,0,8,2,2,7,1,100,4,4,62
15112,105,4823,0,8,2,2,7,3,707,5,3,62
15113,105,4823,0,8,2,2,7,4,1022,6,2,62
15114,105,4823,0,8,2,2,7,2,655,7,1,62
15167,105,5133,1,9,8,8,2,1,601,1,5,63
15168,105,5133,1,9,8,8,2,3,197,2,4,63
15169,105,5133,1,9,8,8,2,1,104,3,3,63
15170,105,5133,1,9,8,8,2,4,2862,4,2,63
15171,105,5133,1,9,8,8,2,1,611,5,1,63
15411,105,6680,0,5,8,4,6,1,434,1,12,64
15412,105,6680,0,5,8,4,6,3,242,2,11,64
15413,105,6680,0,5,8,4,6,4,839,3,10,64
15414,105,6680,0,5,8,4,6,2,743,4,9,64
15415,105,6680,0,5,8,4,6,1,494,5,8,64
15416,105,6680,0,5,8,4,6,3,551,6,7,64
15417,105,6680,0,5,8,4,6,4,367,7,6,64
15418,105,6680,0,5,8,4,6,3,375,8,5,64
15419,105,6680,0,5,8,4,6,1,387,9,4,64
15420,105,6680,0,5,8,4,6,3,147,10,3,64
15421,105,6680,0,5,8,4,6,1,427,11,2,64
15422,105,6680,0,5,8,4,6,2,218,12,1,64
15481,105,6004,1,2,2,8,2,1,580,1,8,65
15482,105,6004,1,2,2,8,2,3,683,2,7,65
15483,105,6004,1,2,2,8,2,4,231,3,6,65
15484,105,6004,1,2,2,8,2,2,456,4,5,65
15485,105,6004,1,2,2,8,2,1,720,5,4,65
15486,105,6004,1,2,2,8,2,3,1378,6,3,65
15487,105,6004,1,2,2,8,2,4,423,7,2,65
15488,105,6004,1,2,2,8,2,1,146,8,1,65
15613,105,2783,0,5,7,2,6,1,322,1,6,66
15614,105,2783,0,5,7,2,6,2,494,2,5,66
15615,105,2783,0,5,7,2,6,4,221,3,4,66
15616,105,2783,0,5,7,2,6,3,507,4,3,66
15617,105,2783,0,5,7,2,6,4,374,5,2,66
15618,105,2783,0,5,7,2,6,2,184,6,1,66
15957,105,3922,0,8,4,1,9,1,519,1,7,67
15958,105,3922,0,8,4,1,9,2,356,2,6,67
15959,105,3922,0,8,4,1,9,4,337,3,5,67
15960,105,3922,0,8,4,1,9,3,1219,4,4,67
15961,105,3922,0,8,4,1,9,1,284,5,3,67
15962,105,3922,0,8,4,1,9,2,274,6,2,67
15963,105,3922,0,8,4,1,9,1,67,7,1,67
16029,105,2100,0,1,2,3,7,1,517,1,4,68
16030,105,2100,0,1,2,3,7,2,567,2,3,68
16031,105,2100,0,1,2,3,7,4,128,3,2,68
16032,105,2100,0,1,2,3,7,1,313,4,1,68
16073,105,2964,1,4,6,8,2,1,375,1,5,69
16074,105,2964,1,4,6,8,2,2,518,2,4,69
16075,105,2964,1,4,6,8,2,4,285,3,3,69
16076,105,2964,1,4,6,8,2,3,160,4,2,69
16077,105,2964,1,4,6,8,2,1,689,5,1,69
16216,105,4579,1,4,8,6,4,1,302,1,9,70
16217,105,4579,1,4,8,6,4,3,251,2,8,70
16218,105,4579,1,4,8,6,4,2,435,3,7,70
16219,105,4579,1,4,8,6,4,4,248,4,6,70
16220,105,4579,1,4,8,6,4,3,654,5,5,70
16221,105,4579,1,4,8,6,4,4,668,6,4,70
16222,105,4579,1,4,8,6,4,3,223,7,3,70
16223,105,4579,1,4,8,6,4,1,396,8,2,70
16224,105,4579,1,4,8,6,4,2,372,9,1,70
16276,105,3724,0,7,8,2,8,1,191,1,7,71
16277,105,3724,0,7,8,2,8,3,320,2,6,71
16278,105,3724,0,7,8,2,8,2,381,3,5,71
16279,105,3724,0,7,8,2,8,4,556,4,4,71
16280,105,3724,0,7,8,2,8,3,644,5,3,71
16281,105,3724,0,7,8,2,8,1,396,6,2,71
16282,105,3724,0,7,8,2,8,2,492,7,1,71
16405,105,1343,0,1,4,3,8,1,233,1,2,72
16406,105,1343,0,1,4,3,8,2,746,2,1,72
16442,105,4039,0,5,8,3,6,1,1326,1,6,73
16443,105,4039,0,5,8,3,6,3,279,2,5,73
16444,105,4039,0,5,8,3,6,1,711,3,4,73
16445,105,4039,0,5,8,3,6,2,692,4,3,73
16446,105,4039,0,5,8,3,6,4,114,5,2,73
16447,105,4039,0,5,8,3,6,2,99,6,1,73
16489,105,1722,1,4,2,6,3,1,721,1,3,74
16490,105,1722,1,4,2,6,3,2,511,2,2,74
16491,105,1722,1,4,2,6,3,1,125,3,1,74
16540,105,2028,1,4,8,9,2,1,328,1,5,75
16541,105,2028,1,4,8,9,2,2,168,2,4,75
16542,105,2028,1,4,8,9,2,4,335,3,3,75
16543,105,2028,1,4,8,9,2,3,109,4,2,75
16544,105,2028,1,4,8,9,2,1,280,5,1,75
16685,105,1562,1,6,1,8,3,1,428,1,3,76
16686,105,1562,1,6,1,8,3,2,378,2,2,76
16687,105,1562,1,6,1,8,3,1,355,3,1,76
16719,105,2935,1,2,6,7,3,1,572,1,3,77
16720,105,2935,1,2,6,7,3,2,991,2,2,77
16721,105,2935,1,2,6,7,3,1,839,3,1,77
16952,105,4963,0,5,8,6,4,1,939,1,7,78
16953,105,4963,0,5,8,6,4,2,359,2,6,78
16954,105,4963,0,5,8,6,4,4,275,3,5,78
16955,105,4963,0,5,8,6,4,3,1116,4,4,78
16956,105,4963,0,5,8,6,4,4,449,5,3,78
16957,105,4963,0,5,8,6,4,1,431,6,2,78
16958,105,4963,0,5,8,6,4,2,514,7,1,78
17004,105,4039,0,5,4,4,6,1,492,1,8,79
17005,105,4039,0,5,4,4,6,2,324,2,7,79
17006,105,4039,0,5,4,4,6,4,451,3,6,79
17007,105,4039,0,5,4,4,6,3,254,4,5,79
17008,105,4039,0,5,4,4,6,1,565,5,4,79
17009,105,4039,0,5,4,4,6,3,418,6,3,79
17010,105,4039,0,5,4,4,6,4,226,7,2,79
17011,105,4039,0,5,4,4,6,2,246,8,1,79
17307,105,1419,0,4,6,3,6,1,289,1,4,80
17308,105,1419,0,4,6,3,6,2,232,2,3,80
17309,105,1419,0,4,6,3,6,4,434,3,2,80
17310,105,1419,0,4,6,3,6,3,72,4,1,80
17499,105,1248,0,2,7,2,8,1,242,1,3,81
17500,105,1248,0,2,7,2,8,3,133,2,2,81
17501,105,1248,0,2,7,2,8,2,500,3,1,81
17642,105,3242,0,5,3,3,8,1,258,1,7,82
17643,105,3242,0,5,3,3,8,3,214,2,6,82
17644,105,3242,0,5,3,3,8,2,428,3,5,82
17645,105,3242,0,5,3,3,8,4,311,4,4,82
17646,105,3242,0,5,3,3,8,3,169,5,3,82
17647,105,3242,0,5,3,3,8,1,399,6,2,82
17648,105,3242,0,5,3,3,8,2,465,7,1,82
17705,105,2030,1,7,4,8,3,1,371,1,3,83
17706,105,2030,1,7,4,8,3,2,534,2,2,83
17707,105,2030,1,7,4,8,3,1,724,3,1,83
17949,105,1748,1,4,4,9,3,1,460,1,3,84
17950,105,1748,1,4,4,9,3,2,361,2,2,84
17951,105,1748,1,4,4,9,3,1,513,3,1,84
18224,105,3151,0,7,4,3,8,1,549,1,6,85
18225,105,3151,0,7,4,3,8,3,97,2,5,85
18226,105,3151,0,7,4,3,8,4,331,3,4,85
18227,105,3151,0,7,4,3,8,3,823,4,3,85
18228,105,3151,0,7,4,3,8,4,352,5,2,85
18229,105,3151,0,7,4,3,8,2,261,6,1,85
18297,105,6770,1,6,5,7,4,1,247,1,10,86
18298,105,6770,1,6,5,7,4,3,257,2,9,86
18299,105,6770,1,6,5,7,4,2,710,3,8,86
18300,105,6770,1,6,5,7,4,4,389,4,7,86
18301,105,6770,1,6,5,7,4,3,558,5,6,86
18302,105,6770,1,6,5,7,4,1,1333,6,5,86
18303,105,6770,1,6,5,7,4,2,378,7,4,86
18304,105,6770,1,6,5,7,4,4,380,8,3,86
18305,105,6770,1,6,5,7,4,3,706,9,2,86
18306,105,6770,1,6,5,7,4,1,168,10,1,86
18387,105,8001,1,6,8,6,4,1,265,1,14,87
18388,105,8001,1,6,8,6,4,3,715,2,13,87
18389,105,8001,1,6,8,6,4,4,859,3,12,87
18390,105,8001,1,6,8,6,4,3,247,4,11,87
18391,105,8001,1,6,8,6,4,1,766,5,10,87
18392,105,8001,1,6,8,6,4,2,578,6,9,87
18393,105,8001,1,6,8,6,4,4,273,7,8,87
18394,105,8001,1,6,8,6,4,3,408,8,7,87
18395,105,8001,1,6,8,6,4,1,828,9,6,87
18396,105,8001,1,6,8,6,4,2,436,10,5,87
18397,105,8001,1,6,8,6,4,4,235,11,4,87
18398,105,8001,1,6,8,6,4,3,328,12,3,87
18399,105,8001,1,6,8,6,4,4,265,13,2,87
18400,105,8001,1,6,8,6,4,1,144,14,1,87
18575,105,1491,0,6,8,5,6,1,516,1,2,88
18576,105,1491,0,6,8,5,6,2,634,2,1,88
18668,105,1588,1,8,2,8,2,1,444,1,3,89
18669,105,1588,1,8,2,8,2,2,355,2,2,89
18670,105,1588,1,8,2,8,2,1,360,3,1,89
18712,105,3448,0,7,5,2,7,1,310,1,8,90
18713,105,3448,0,7,5,2,7,3,272,2,7,90
18714,105,3448,0,7,5,2,7,4,338,3,6,90
18715,105,3448,0,7,5,2,7,2,393,4,5,90
18716,105,3448,0,7,5,2,7,1,267,5,4,90
18717,105,3448,0,7,5,2,7,3,436,6,3,90
18718,105,3448,0,7,5,2,7,4,353,7,2,90
18719,105,3448,0,7,5,2,7,2,37,8,1,90
18750,105,3956,1,8,7,8,2,1,343,1,7,91
18751,105,3956,1,8,7,8,2,2,382,2,6,91
18752,105,3956,1,8,7,8,2,4,424,3,5,91
18753,105,3956,1,8,7,8,2,3,790,4,4,91
18754,105,3956,1,8,7,8,2,4,642,5,3,91
18755,105,3956,1,8,7,8,2,2,190,6,2,91
18756,105,3956,1,8,7,8,2,1,308,7,1,91
19005,105,1597,1,9,7,8,2,1,323,1,4,92
19006,105,1597,1,9,7,8,2,2,346,2,3,92
19007,105,1597,1,9,7,8,2,4,182,3,2,92
19008,105,1597,1,9,7,8,2,3,175,4,1,92
19055,105,3507,0,7,2,2,7,1,314,1,7,93
19056,105,3507,0,7,2,2,7,3,530,2,6,93
19057,105,3507,0,7,2,2,7,2,541,3,5,93
19058,105,3507,0,7,2,2,7,1,399,4,4,93
19059,105,3507,0,7,2,2,7,3,410,5,3,93
19060,105,3507,0,7,2,2,7,4,445,6,2,93
19061,105,3507,0,7,2,2,7,2,41,7,1,93
19108,105,1614,1,4,6,9,5,1,556,1,3,94
19109,105,1614,1,4,6,9,5,2,480,2,2,94
19110,105,1614,1,4,6,9,5,1,172,3,1,94
19165,105,2281,0,7,3,2,8,1,390,1,4,95
19166,105,2281,0,7,3,2,8,3,277,2,3,95
19167,105,2281,0,7,3,2,8,4,692,3,2,95
19168,105,2281,0,7,3,2,8,2,207,4,1,95
19210,105,1545,0,2,5,3,7,1,747,1,2,96
19211,105,1545,0,2,5,3,7,2,499,2,1,96
19417,105,1460,0,5,9,3,7,1,156,1,4,97
19418,105,1460,0,5,9,3,7,3,213,2,3,97
19419,105,1460,0,5,9,3,7,1,109,3,2,97
19420,105,1460,0,5,9,3,7,2,551,4,1,97
19492,105,2831,0,8,9,4,8,1,328,1,5,98
19493,105,2831,0,8,9,4,8,2,246,2,4,98
19494,105,2831,0,8,9,4,8,4,314,3,3,98
19495,105,2831,0,8,9,4,8,3,1024,4,2,98
19496,105,2831,0,8,9,4,8,2,233,5,1,98
19513,105,2298,0,6,9,3,7,1,434,1,4,99
19514,105,2298,0,6,9,3,7,2,470,2,3,99
19515,105,2298,0,6,9,3,7,4,382,3,2,99
19516,105,2298,0,6,9,3,7,2,515,4,1,99
19660,105,4378,0,5,2,3,7,1,144,1,5,100
19661,105,4378,0,5,2,3,7,2,1590,2,4,100
19662,105,4378,0,5,2,3,7,4,307,3,3,100
19663,105,4378,0,5,2,3,7,1,265,4,2,100
19664,105,4378,0,5,2,3,7,2,105,5,1,100
19798,105,5837,1,2,5,7,3,1,465,1,7,101
19799,105,5837,1,2,5,7,3,3,284,2,6,101
19800,105,5837,1,2,5,7,3,2,3086,3,5,101
19801,105,5837,1,2,5,7,3,1,194,4,4,101
19802,105,5837,1,2,5,7,3,3,233,5,3,101
19803,105,5837,1,2,5,7,3,4,340,6,2,101
19804,105,5837,1,2,5,7,3,3,176,7,1,101
19870,105,1018,0,8,8,2,6,1,164,1,2,102
19871,105,1018,0,8,8,2,6,2,473,2,1,102
19967,105,1070,0,2,6,2,7,1,192,1,2,103
19968,105,1070,0,2,6,2,7,2,571,2,1,103
7569,106,1629,1,1,4,4,9,1,503,1,3,1
7570,106,1629,1,1,4,4,9,2,336,2,2,1
7571,106,1629,1,1,4,4,9,1,309,3,1,1
7733,106,2996,1,6,5,2,7,2,267,1,4,2
7734,106,2996,1,6,5,2,7,1,468,2,3,2
7735,106,2996,1,6,5,2,7,2,786,3,2,2
7736,106,2996,1,6,5,2,7,1,680,4,1,2
7820,106,1654,1,5,6,9,2,1,323,1,3,3
7821,106,1654,1,5,6,9,2,2,395,2,2,3
7822,106,1654,1,5,6,9,2,1,325,3,1,3
7941,106,2704,1,7,5,3,9,2,175,1,4,4
7942,106,2704,1,7,5,3,9,1,1277,2,3,4
7943,106,2704,1,7,5,3,9,2,406,3,2,4
7944,106,2704,1,7,5,3,9,1,102,4,1,4
8088,106,1544,0,7,7,2,6,1,170,1,2,5
8089,106,1544,0,7,7,2,6,2,913,2,1,5
8157,106,1657,0,4,7,8,2,1,367,1,2,6
8158,106,1657,0,4,7,8,2,2,830,2,1,6
8261,106,1441,0,4,7,8,2,1,256,1,2,7
8262,106,1441,0,4,7,8,2,2,763,2,1,7
8309,106,2164,0,6,9,7,4,1,325,1,4,8
8310,106,2164,0,6,9,7,4,2,587,2,3,8
8311,106,2164,0,6,9,7,4,1,375,3,2,8
8312,106,2164,0,6,9,7,4,2,242,4,1,8
8409,106,1782,1,6,4,3,8,1,301,1,3,9
8410,106,1782,1,6,4,3,8,2,421,2,2,9
8411,106,1782,1,6,4,3,8,1,439,3,1,9
8487,106,1343,1,9,4,3,7,2,226,1,2,10
8488,106,1343,1,9,4,3,7,1,664,2,1,10
8659,106,1727,1,6,4,2,8,1,208,1,3,11
8660,106,1727,1,6,4,2,8,2,503,2,2,11
8661,106,1727,1,6,4,2,8,1,518,3,1,11
8805,106,2198,0,6,6,8,2,1,233,1,4,12
8806,106,2198,0,6,6,8,2,2,492,2,3,12
8807,106,2198,0,6,6,8,2,1,342,3,2,12
8808,106,2198,0,6,6,8,2,2,531,4,1,12
8923,106,1385,1,8,3,2,7,1,364,1,3,13
8924,106,1385,1,8,3,2,7,2,378,2,2,13
8925,106,1385,1,8,3,2,7,1,126,3,1,13
8946,106,3180,0,8,8,3,7,1,499,1,4,14
8947,106,3180,0,8,8,3,7,2,1186,2,3,14
8948,106,3180,0,8,8,3,7,1,555,3,2,14
8949,106,3180,0,8,8,3,7,2,277,4,1,14
9023,106,2076,1,7,5,2,8,1,230,1,3,15
9024,106,2076,1,7,5,2,8,2,852,2,2,15
9025,106,2076,1,7,5,2,8,1,441,3,1,15
9075,106,1269,0,6,9,7,2,1,280,1,2,16
9076,106,1269,0,6,9,7,2,2,598,2,1,16
9132,106,1647,0,4,4,9,3,1,184,1,4,17
9133,106,1647,0,4,4,9,3,2,613,2,3,17
9134,106,1647,0,4,4,9,3,1,238,3,2,17
9135,106,1647,0,4,4,9,3,2,154,4,1,17
9442,106,1415,1,8,4,3,9,1,387,1,3,18
9443,106,1415,1,8,4,3,9,2,404,2,2,18
9444,106,1415,1,8,4,3,9,1,101,3,1,18
9611,106,1716,0,5,8,9,2,1,136,1,3,19
9612,106,1716,0,5,8,9,2,2,826,2,2,19
9613,106,1716,0,5,8,9,2,1,148,3,1,19
9854,106,1416,1,7,3,3,9,1,335,1,3,20
9855,106,1416,1,7,3,3,9,2,450,2,2,20
9856,106,1416,1,7,3,3,9,1,200,3,1,20
10054,106,1075,0,3,9,7,3,1,186,1,2,21
10055,106,1075,0,3,9,7,3,2,536,2,1,21
10087,106,1787,1,7,6,6,1,1,457,1,3,22
10088,106,1787,1,7,6,6,1,2,472,2,2,22
10089,106,1787,1,7,6,6,1,1,298,3,1,22
10241,106,1657,0,9,6,2,7,1,189,1,2,23
10242,106,1657,0,9,6,2,7,2,1011,2,1,23
10290,106,1548,1,9,4,3,7,1,277,1,3,24
10291,106,1548,1,9,4,3,7,2,585,2,2,24
10292,106,1548,1,9,4,3,7,1,221,3,1,24
10323,106,2787,0,4,8,7,3,2,395,1,3,25
10324,106,2787,0,4,8,7,3,1,884,2,2,25
10325,106,2787,0,4,8,7,3,2,931,3,1,25
10359,106,1984,1,6,4,3,9,1,259,1,3,26
10360,106,1984,1,6,4,3,9,2,352,2,2,26
10361,106,1984,1,6,4,3,9,1,850,3,1,26
10395,106,1407,1,8,4,2,9,1,358,1,3,27
10396,106,1407,1,8,4,2,9,2,271,2,2,27
10397,106,1407,1,8,4,2,9,1,262,3,1,27
10592,106,1332,1,5,6,3,8,1,284,1,3,28
10593,106,1332,1,5,6,3,8,2,463,2,2,28
10594,106,1332,1,5,6,3,8,1,141,3,1,28
10700,106,1763,0,4,6,9,2,1,148,1,2,29
10701,106,1763,0,4,6,9,2,2,1194,2,1,29
10874,106,1600,1,6,4,2,8,1,198,1,3,30
10875,106,1600,1,6,4,2,8,2,644,2,2,30
10876,106,1600,1,6,4,2,8,1,220,3,1,30
10911,106,1387,0,4,7,8,2,1,293,1,2,31
10912,106,1387,0,4,7,8,2,2,652,2,1,31
10981,106,2241,1,4,8,3,7,1,430,1,3,32
10982,106,2241,1,4,8,3,7,2,528,2,2,32
10983,106,2241,1,4,8,3,7,1,777,3,1,32
11017,106,2625,1,6,4,3,7,1,275,1,3,33
11018,106,2625,1,6,4,3,7,2,1459,2,2,33
11019,106,2625,1,6,4,3,7,1,313,3,1,33
11092,106,1956,0,6,7,8,2,1,238,1,4,34
11093,106,1956,0,6,7,8,2,2,469,2,3,34
11094,106,1956,0,6,7,8,2,1,314,3,2,34
11095,106,1956,0,6,7,8,2,2,307,4,1,34
11180,106,2845,0,2,7,7,2,1,1014,1,4,35
11181,106,2845,0,2,7,7,2,2,542,2,3,35
11182,106,2845,0,2,7,7,2,1,364,3,2,35
11183,106,2845,0,2,7,7,2,2,122,4,1,35
11211,106,2023,1,7,5,2,9,1,192,1,3,36
11212,106,2023,1,7,5,2,9,2,1009,2,2,36
11213,106,2023,1,7,5,2,9,1,328,3,1,36
11476,106,1526,1,1,5,4,9,1,481,1,3,37
11477,106,1526,1,1,5,4,9,2,364,2,2,37
11478,106,1526,1,1,5,4,9,1,218,3,1,37
11598,106,1582,1,6,4,3,9,1,259,1,3,38
11599,106,1582,1,6,4,3,9,2,701,2,2,38
11600,106,1582,1,6,4,3,9,1,136,3,1,38
12168,106,3063,1,5,1,9,4,1,149,1,5,39
12169,106,3063,1,5,1,9,4,2,1735,2,4,39
12170,106,3063,1,5,1,9,4,1,199,3,3,39
12171,106,3063,1,5,1,9,4,3,158,4,2,39
12172,106,3063,1,5,1,9,4,1,216,5,1,39
12226,106,1545,0,5,9,8,3,1,155,1,3,40
12227,106,1545,0,5,9,8,3,2,786,2,2,40
12228,106,1545,0,5,9,8,3,4,212,3,1,40
12283,106,1880,0,3,6,9,3,1,441,1,2,41
12284,106,1880,0,3,6,9,3,2,979,2,1,41
12736,106,4049,0,4,6,7,2,1,369,1,9,42
12737,106,4049,0,4,6,7,2,2,139,2,8,42
12738,106,4049,0,4,6,7,2,1,1133,3,7,42
12739,106,4049,0,4,6,7,2,2,529,4,6,42
12740,106,4049,0,4,6,7,2,4,98,5,5,42
12741,106,4049,0,4,6,7,2,2,274,6,4,42
12742,106,4049,0,4,6,7,2,3,146,7,3,42
12743,106,4049,0,4,6,7,2,4,303,8,2,42
12744,106,4049,0,4,6,7,2,3,89,9,1,42
12802,106,2597,0,3,7,9,2,1,295,1,6,43
12803,106,2597,0,3,7,9,2,2,407,2,5,43
12804,106,2597,0,3,7,9,2,4,262,3,4,43
12805,106,2597,0,3,7,9,2,3,250,4,3,43
12806,106,2597,0,3,7,9,2,2,176,5,2,43
12807,106,2597,0,3,7,9,2,1,385,6,1,43
12858,106,2939,0,4,5,7,3,1,347,1,5,44
12859,106,2939,0,4,5,7,3,2,401,2,4,44
12860,106,2939,0,4,5,7,3,1,676,3,3,44
12861,106,2939,0,4,5,7,3,2,389,4,2,44
12862,106,2939,0,4,5,7,3,4,208,5,1,44
12960,106,2774,1,6,4,3,7,1,289,1,5,45
12961,106,2774,1,6,4,3,7,2,1093,2,4,45
12962,106,2774,1,6,4,3,7,4,198,3,3,45
12963,106,2774,1,6,4,3,7,3,164,4,2,45
12964,106,2774,1,6,4,3,7,1,316,5,1,45
13022,106,1292,1,9,6,3,7,1,336,1,3,46
13023,106,1292,1,9,6,3,7,2,443,2,2,46
13024,106,1292,1,9,6,3,7,1,72,3,1,46
13408,106,1440,0,5,4,8,3,2,350,1,3,47
13409,106,1440,0,5,4,8,3,1,414,2,2,47
13410,106,1440,0,5,4,8,3,2,197,3,1,47
13453,106,2522,1,7,6,6,3,1,430,1,6,48
13454,106,2522,1,7,6,6,3,2,383,2,5,48
13455,106,2522,1,7,6,6,3,1,120,3,4,48
13456,106,2522,1,7,6,6,3,3,299,4,3,48
13457,106,2522,1,7,6,6,3,4,288,5,2,48
13458,106,2522,1,7,6,6,3,1,272,6,1,48
13500,106,3218,0,5,6,3,6,1,299,1,6,49
13501,106,3218,0,5,6,3,6,2,594,2,5,49
13502,106,3218,0,5,6,3,6,4,260,3,4,49
13503,106,3218,0,5,6,3,6,3,233,4,3,49
13504,106,3218,0,5,6,3,6,1,578,5,2,49
13505,106,3218,0,5,6,3,6,2,352,6,1,49
13548,106,1286,1,9,3,2,9,1,305,1,3,50
13549,106,1286,1,9,3,2,9,2,360,2,2,50
13550,106,1286,1,9,3,2,9,1,165,3,1,50
13607,106,1454,0,4,4,7,3,1,169,1,3,51
13608,106,1454,0,4,4,7,3,2,289,2,2,51
13609,106,1454,0,4,4,7,3,1,560,3,1,51
13715,106,1159,0,4,6,9,2,1,257,1,2,52
13716,106,1159,0,4,6,9,2,2,583,2,1,52
13882,106,2151,1,7,5,2,7,1,280,1,5,53
13883,106,2151,1,7,5,2,7,2,325,2,4,53
13884,106,2151,1,7,5,2,7,4,225,3,3,53
13885,106,2151,1,7,5,2,7,3,220,4,2,53
13886,106,2151,1,7,5,2,7,1,421,5,1,53
13962,106,3724,1,3,1,7,4,1,233,1,9,54
13963,106,3724,1,3,1,7,4,2,501,2,8,54
13964,106,3724,1,3,1,7,4,4,319,3,7,54
13965,106,3724,1,3,1,7,4,2,569,4,6,54
13966,106,3724,1,3,1,7,4,1,494,5,5,54
13967,106,3724,1,3,1,7,4,3,114,6,4,54
13968,106,3724,1,3,1,7,4,1,180,7,3,54
13969,106,3724,1,3,1,7,4,4,250,8,2,54
13970,106,3724,1,3,1,7,4,1,6,9,1,54
14015,106,3588,0,4,7,7,2,1,339,1,8,55
14016,106,3588,0,4,7,7,2,2,613,2,7,55
14017,106,3588,0,4,7,7,2,1,171,3,6,55
14018,106,3588,0,4,7,7,2,3,205,4,5,55
