V1,subj,rt,choice,upleftval,uprightval,downleftval,downrightval,roi,fixdur,fixnum,revfixnum,trial
90,101,2208,0,6,9,8,2,1,838,1,2,1
91,101,2208,0,6,9,8,2,2,924,2,1,1
274,101,2339,1,7,3,2,9,1,472,1,3,2
275,101,2339,1,7,3,2,9,2,974,2,2,2
276,101,2339,1,7,3,2,9,1,328,3,1,2
368,101,4512,0,5,9,7,2,1,488,1,4,3
369,101,4512,0,5,9,7,2,2,858,2,3,3
370,101,4512,0,5,9,7,2,1,2008,3,2,3
371,101,4512,0,5,9,7,2,2,485,4,1,3
425,101,5581,0,9,9,2,8,1,349,1,8,4
426,101,5581,0,9,9,2,8,2,2311,2,7,4
427,101,5581,0,9,9,2,8,3,449,3,6,4
428,101,5581,0,9,9,2,8,4,326,4,5,4
429,101,5581,0,9,9,2,8,2,126,5,4,4
430,101,5581,0,9,9,2,8,1,467,6,3,4
431,101,5581,0,9,9,2,8,2,390,7,2,4
432,101,5581,0,9,9,2,8,4,36,8,1,4
501,101,1644,1,7,6,3,9,1,445,1,3,5
502,101,1644,1,7,6,3,9,2,420,2,2,5
503,101,1644,1,7,6,3,9,1,267,3,1,5
552,101,1342,1,8,5,7,2,1,325,1,3,6
553,101,1342,1,8,5,7,2,2,528,2,2,6
554,101,1342,1,8,5,7,2,1,55,3,1,6
619,101,6172,0,3,9,9,2,1,438,1,8,7
620,101,6172,0,3,9,9,2,2,822,2,7,7
621,101,6172,0,3,9,9,2,1,817,3,6,7
622,101,6172,0,3,9,9,2,2,475,4,5,7
623,101,6172,0,3,9,9,2,4,442,5,4,7
624,101,6172,0,3,9,9,2,3,959,6,3,7
625,101,6172,0,3,9,9,2,4,246,7,2,7
626,101,6172,0,3,9,9,2,2,705,8,1,7
794,101,2015,0,7,6,8,2,1,650,1,2,8
795,101,2015,0,7,6,8,2,2,1012,2,1,8
861,101,7428,0,4,4,7,4,1,432,1,8,9
862,101,7428,0,4,4,7,4,2,2245,2,7,9
863,101,7428,0,4,4,7,4,1,624,3,6,9
864,101,7428,0,4,4,7,4,2,487,4,5,9
865,101,7428,0,4,4,7,4,4,343,5,4,9
866,101,7428,0,4,4,7,4,3,452,6,3,9
867,101,7428,0,4,4,7,4,1,906,7,2,9
868,101,7428,0,4,4,7,4,2,615,8,1,9
931,101,1401,0,6,9,9,4,1,343,1,2,10
932,101,1401,0,6,9,9,4,2,728,2,1,10
1069,101,4323,1,7,7,2,8,1,494,1,4,11
1070,101,4323,1,7,7,2,8,2,2151,2,3,11
1071,101,4323,1,7,7,2,8,1,934,3,2,11
1072,101,4323,1,7,7,2,8,3,77,4,1,11
1187,101,1233,1,8,3,3,7,1,223,1,3,12
1188,101,1233,1,8,3,3,7,2,387,2,2,12
1189,101,1233,1,8,3,3,7,1,241,3,1,12
1240,101,7348,1,7,7,8,3,1,650,1,8,13
1241,101,7348,1,7,7,8,3,2,2844,2,7,13
1242,101,7348,1,7,7,8,3,1,432,3,6,13
1243,101,7348,1,7,7,8,3,3,526,4,5,13
1244,101,7348,1,7,7,8,3,1,569,5,4,13
1245,101,7348,1,7,7,8,3,4,654,6,3,13
1246,101,7348,1,7,7,8,3,3,248,7,2,13
1247,101,7348,1,7,7,8,3,1,256,8,1,13
1314,101,4301,1,7,7,8,2,1,541,1,7,14
1315,101,4301,1,7,7,8,2,2,585,2,6,14
1316,101,4301,1,7,7,8,2,1,551,3,5,14
1317,101,4301,1,7,7,8,2,2,354,4,4,14
1318,101,4301,1,7,7,8,2,4,354,5,3,14
1319,101,4301,1,7,7,8,2,2,128,6,2,14
1320,101,4301,1,7,7,8,2,1,824,7,1,14
1380,101,1908,0,3,8,9,2,1,1041,1,2,15
1381,101,1908,0,3,8,9,2,2,393,2,1,15
1692,101,2462,1,6,4,9,4,1,418,1,3,16
1693,101,2462,1,6,4,9,4,2,896,2,2,16
1694,101,2462,1,6,4,9,4,1,683,3,1,16
1762,101,2359,1,9,5,2,9,1,599,1,3,17
1763,101,2359,1,9,5,2,9,2,973,2,2,17
1764,101,2359,1,9,5,2,9,1,239,3,1,17
1808,101,3391,0,6,9,2,8,1,330,1,6,18
1809,101,3391,0,6,9,2,8,2,1029,2,5,18
1810,101,3391,0,6,9,2,8,1,412,3,4,18
1811,101,3391,0,6,9,2,8,3,134,4,3,18
1812,101,3391,0,6,9,2,8,4,147,5,2,18
1813,101,3391,0,6,9,2,8,2,604,6,1,18
1875,101,7269,0,3,7,9,4,1,616,1,8,19
1876,101,7269,0,3,7,9,4,2,677,2,7,19
1877,101,7269,0,3,7,9,4,1,834,3,6,19
1878,101,7269,0,3,7,9,4,2,1708,4,5,19
1879,101,7269,0,3,7,9,4,4,507,5,4,19
1880,101,7269,0,3,7,9,4,3,772,6,3,19
1881,101,7269,0,3,7,9,4,1,681,7,2,19
1882,101,7269,0,3,7,9,4,2,269,8,1,19
2059,101,5479,0,6,7,9,3,1,724,1,6,20
2060,101,5479,0,6,7,9,3,2,1282,2,5,20
2061,101,5479,0,6,7,9,3,1,301,3,4,20
2062,101,5479,0,6,7,9,3,3,143,4,3,20
2063,101,5479,0,6,7,9,3,1,106,5,2,20
2064,101,5479,0,6,7,9,3,2,1953,6,1,20
2187,101,1463,1,8,2,4,6,1,398,1,3,21
2188,101,1463,1,8,2,4,6,2,483,2,2,21
2189,101,1463,1,8,2,4,6,1,152,3,1,21
2225,101,1224,1,8,6,3,9,1,265,1,3,22
2226,101,1224,1,8,6,3,9,2,367,2,2,22
2227,101,1224,1,8,6,3,9,1,180,3,1,22
2280,101,1517,0,5,9,8,3,1,410,1,2,23
2281,101,1517,0,5,9,8,3,2,751,2,1,23
2320,101,2859,1,6,7,8,3,1,442,1,3,24
2321,101,2859,1,6,7,8,3,2,816,2,2,24
2322,101,2859,1,6,7,8,3,1,1023,3,1,24
2422,101,2517,1,7,6,4,7,1,941,1,3,25
2423,101,2517,1,7,6,4,7,2,853,2,2,25
2424,101,2517,1,7,6,4,7,1,244,3,1,25
2510,101,2386,1,5,5,4,6,1,551,1,3,26
2511,101,2386,1,5,5,4,6,2,846,2,2,26
2512,101,2386,1,5,5,4,6,1,482,3,1,26
2593,101,2550,0,7,8,8,3,1,446,1,4,27
2594,101,2550,0,7,8,8,3,2,749,2,3,27
2595,101,2550,0,7,8,8,3,1,432,3,2,27
2596,101,2550,0,7,8,8,3,2,386,4,1,27
2748,101,1341,1,9,7,2,8,1,285,1,3,28
2749,101,1341,1,9,7,2,8,2,373,2,2,28
2750,101,1341,1,9,7,2,8,1,316,3,1,28
2799,101,932,0,1,9,7,2,1,264,1,2,29
2800,101,932,0,1,9,7,2,2,333,2,1,29
2854,101,1396,0,6,9,7,2,1,500,1,2,30
2855,101,1396,0,6,9,7,2,2,509,2,1,30
2972,101,5890,0,5,7,2,6,1,1143,1,7,31
2973,101,5890,0,5,7,2,6,2,1199,2,6,31
2974,101,5890,0,5,7,2,6,4,226,3,5,31
2975,101,5890,0,5,7,2,6,2,211,4,4,31
2976,101,5890,0,5,7,2,6,1,1030,5,3,31
2977,101,5890,0,5,7,2,6,2,644,6,2,31
2978,101,5890,0,5,7,2,6,4,460,7,1,31
3044,101,1786,0,4,5,7,2,1,382,1,2,32
3045,101,1786,0,4,5,7,2,2,1003,2,1,32
3189,101,1242,1,9,5,2,7,1,292,1,3,33
3190,101,1242,1,9,5,2,7,2,354,2,2,33
3191,101,1242,1,9,5,2,7,1,193,3,1,33
3432,101,1554,1,7,1,3,7,1,717,1,3,34
3433,101,1554,1,7,1,3,7,2,359,2,2,34
3434,101,1554,1,7,1,3,7,1,79,3,1,34
3521,101,1388,1,6,5,3,6,1,405,1,2,35
3522,101,1388,1,6,5,3,6,2,592,2,1,35
3613,101,1466,0,5,9,6,4,1,680,1,2,36
3614,101,1466,0,5,9,6,4,2,486,2,1,36
3668,101,1916,1,6,5,3,6,1,392,1,3,37
3669,101,1916,1,6,5,3,6,2,611,2,2,37
3670,101,1916,1,6,5,3,6,1,427,3,1,37
3853,101,1195,1,9,1,2,7,1,932,1,1,38
3903,101,1532,0,7,6,2,9,1,327,1,2,39
3904,101,1532,0,7,6,2,9,2,886,2,1,39
3951,101,2148,0,7,7,4,6,1,787,1,2,40
3952,101,2148,0,7,7,4,6,2,1027,2,1,40
4094,101,3051,1,8,7,2,8,1,539,1,5,41
4095,101,3051,1,8,7,2,8,2,800,2,4,41
4096,101,3051,1,8,7,2,8,1,140,3,3,41
4097,101,3051,1,8,7,2,8,3,128,4,2,41
4098,101,3051,1,8,7,2,8,1,579,5,1,41
4152,101,2757,1,7,5,8,2,1,381,1,3,42
4153,101,2757,1,7,5,8,2,2,967,2,2,42
4154,101,2757,1,7,5,8,2,1,936,3,1,42
4265,101,2783,0,4,6,4,8,1,910,1,2,43
4266,101,2783,0,4,6,4,8,2,1409,2,1,43
4328,101,1974,0,3,9,3,8,1,621,1,2,44
4329,101,1974,0,3,9,3,8,2,844,2,1,44
4361,101,1070,0,4,9,7,2,1,298,1,2,45
4362,101,1070,0,4,9,7,2,2,423,2,1,45
4543,101,2984,1,7,7,3,6,1,878,1,3,46
4544,101,2984,1,7,7,3,6,2,647,2,2,46
4545,101,2984,1,7,7,3,6,1,932,3,1,46
4579,101,4090,1,3,1,9,4,1,1147,1,3,47
4580,101,4090,1,3,1,9,4,2,1702,2,2,47
4581,101,4090,1,3,1,9,4,1,658,3,1,47
4649,101,1941,1,9,5,2,6,1,391,1,3,48
4650,101,1941,1,9,5,2,6,2,572,2,2,48
4651,101,1941,1,9,5,2,6,1,572,3,1,48
4990,101,1340,1,9,5,2,8,1,380,1,3,49
4991,101,1340,1,9,5,2,8,2,416,2,2,49
4992,101,1340,1,9,5,2,8,1,127,3,1,49
5186,101,1292,0,6,7,9,3,1,307,1,2,50
5187,101,1292,0,6,7,9,3,2,633,2,1,50
5223,101,4044,1,5,3,4,9,1,837,1,3,51
5224,101,4044,1,5,3,4,9,2,1256,2,2,51
5225,101,4044,1,5,3,4,9,1,1105,3,1,51
5280,101,2783,0,8,9,3,8,1,255,1,4,52
5281,101,2783,0,8,9,3,8,2,700,2,3,52
5282,101,2783,0,8,9,3,8,1,522,3,2,52
5283,101,2783,0,8,9,3,8,2,741,4,1,52
5403,101,1858,1,5,5,2,6,1,401,1,3,53
5404,101,1858,1,5,5,2,6,2,694,2,2,53
5405,101,1858,1,5,5,2,6,1,340,3,1,53
5654,101,1819,1,6,1,9,4,1,444,1,3,54
5655,101,1819,1,6,1,9,4,2,857,2,2,54
5656,101,1819,1,6,1,9,4,1,104,3,1,54
5745,101,1558,0,5,8,9,2,1,976,1,2,55
5746,101,1558,0,5,8,9,2,2,279,2,1,55
6001,101,5719,0,6,9,2,9,1,296,1,6,56
6002,101,5719,0,6,9,2,9,2,511,2,5,56
6003,101,5719,0,6,9,2,9,1,1629,3,4,56
6004,101,5719,0,6,9,2,9,3,605,4,3,56
6005,101,5719,0,6,9,2,9,4,1273,5,2,56
6006,101,5719,0,6,9,2,9,2,459,6,1,56
6210,101,1318,1,9,1,2,7,1,283,1,3,57
6211,101,1318,1,9,1,2,7,2,439,2,2,57
6212,101,1318,1,9,1,2,7,1,195,3,1,57
6238,101,1268,0,1,5,4,6,1,446,1,2,58
6239,101,1268,0,1,5,4,6,2,516,2,1,58
6419,101,1674,0,6,9,9,2,1,749,1,2,59
6420,101,1674,0,6,9,9,2,2,589,2,1,59
6522,101,2723,0,9,9,9,2,1,290,1,4,60
6523,101,2723,0,9,9,9,2,2,718,2,3,60
6524,101,2723,0,9,9,9,2,1,666,3,2,60
6525,101,2723,0,9,9,9,2,2,523,4,1,60
6671,101,1123,1,6,4,2,7,1,278,1,3,61
6672,101,1123,1,6,4,2,7,2,402,2,2,61
6673,101,1123,1,6,4,2,7,1,62,3,1,61
6715,101,1717,0,7,7,6,2,1,673,1,2,62
6716,101,1717,0,7,7,6,2,2,620,2,1,62
6945,101,1027,0,4,7,7,5,1,306,1,2,63
6946,101,1027,0,4,7,7,5,2,416,2,1,63
7280,101,3092,0,5,7,6,4,1,556,1,4,64
7281,101,3092,0,5,7,6,4,2,557,2,3,64
7282,101,3092,0,5,7,6,4,1,606,3,2,64
7283,101,3092,0,5,7,6,4,2,813,4,1,64
7374,101,1224,1,9,2,2,6,1,252,1,3,65
7375,101,1224,1,9,2,2,6,2,418,2,2,65
7376,101,1224,1,9,2,2,6,1,129,3,1,65
7408,101,4356,0,3,6,3,8,1,453,1,8,66
7409,101,4356,0,3,6,3,8,2,599,2,7,66
7410,101,4356,0,3,6,3,8,4,179,3,6,66
7411,101,4356,0,3,6,3,8,2,182,4,5,66
7412,101,4356,0,3,6,3,8,1,691,5,4,66
7413,101,4356,0,3,6,3,8,3,494,6,3,66
7414,101,4356,0,3,6,3,8,4,346,7,2,66
7415,101,4356,0,3,6,3,8,2,490,8,1,66
7707,101,2001,0,1,7,4,8,1,1075,1,2,67
7708,101,2001,0,1,7,4,8,2,661,2,1,67
8278,101,2875,1,9,3,4,7,1,1255,1,3,68
8279,101,2875,1,9,3,4,7,2,521,2,2,68
8280,101,2875,1,9,3,4,7,1,514,3,1,68
8900,101,7401,1,7,5,6,4,1,1040,1,8,69
8901,101,7401,1,7,5,6,4,2,724,2,7,69
8902,101,7401,1,7,5,6,4,1,655,3,6,69
8903,101,7401,1,7,5,6,4,2,974,4,5,69
8904,101,7401,1,7,5,6,4,1,313,5,4,69
8905,101,7401,1,7,5,6,4,3,572,6,3,69
8906,101,7401,1,7,5,6,4,4,1228,7,2,69
8907,101,7401,1,7,5,6,4,1,621,8,1,69
11079,101,4149,1,6,6,2,9,1,593,1,5,70
11080,101,4149,1,6,6,2,9,2,872,2,4,70
11081,101,4149,1,6,6,2,9,1,858,3,3,70
11082,101,4149,1,6,6,2,9,2,984,4,2,70
11083,101,4149,1,6,6,2,9,1,128,5,1,70
13906,101,3235,1,6,8,9,2,2,275,1,4,71
13907,101,3235,1,6,8,9,2,1,788,2,3,71
13908,101,3235,1,6,8,9,2,2,988,3,2,71
13909,101,3235,1,6,8,9,2,1,494,4,1,71
14433,101,1998,0,6,7,9,5,1,725,1,2,72
14434,101,1998,0,6,7,9,5,2,879,2,1,72
15570,101,1890,1,9,1,2,7,1,632,1,3,73
15571,101,1890,1,9,1,2,7,2,523,2,2,73
15572,101,1890,1,9,1,2,7,1,229,3,1,73
16686,101,5734,1,3,3,3,7,1,700,1,6,74
16687,101,5734,1,3,3,3,7,2,838,2,5,74
16688,101,5734,1,3,3,3,7,1,1622,3,4,74
16689,101,5734,1,3,3,3,7,2,784,4,3,74
16690,101,5734,1,3,3,3,7,1,705,5,2,74
16691,101,5734,1,3,3,3,7,3,119,6,1,74
17772,101,1491,1,9,4,2,7,1,380,1,3,75
17773,101,1491,1,9,4,2,7,2,603,2,2,75
17774,101,1491,1,9,4,2,7,1,87,3,1,75
19931,101,4960,1,7,6,5,9,1,895,1,6,76
19932,101,4960,1,7,6,5,9,2,562,2,5,76
19933,101,4960,1,7,6,5,9,1,572,3,4,76
19934,101,4960,1,7,6,5,9,2,1097,4,3,76
19935,101,4960,1,7,6,5,9,4,251,5,2,76
19936,101,4960,1,7,6,5,9,1,709,6,1,76
21305,101,1992,1,7,6,2,7,1,427,1,3,77
21306,101,1992,1,7,6,2,7,2,867,2,2,77
21307,101,1992,1,7,6,2,7,1,318,3,1,77
21368,101,1411,0,3,8,7,3,1,607,1,2,78
21369,101,1411,0,3,8,7,3,2,410,2,1,78
21438,101,2279,0,7,9,6,2,1,1211,1,2,79
21439,101,2279,0,7,9,6,2,2,655,2,1,79
21593,101,4100,1,9,2,2,6,1,644,1,5,80
21594,101,4100,1,9,2,2,6,2,910,2,4,80
21595,101,4100,1,9,2,2,6,4,455,3,3,80
21596,101,4100,1,9,2,2,6,3,1052,4,2,80
21597,101,4100,1,9,2,2,6,1,226,5,1,80
21694,101,7677,1,5,4,6,4,1,1027,1,8,81
21695,101,7677,1,5,4,6,4,2,2224,2,7,81
21696,101,7677,1,5,4,6,4,3,461,3,6,81
21697,101,7677,1,5,4,6,4,1,576,4,5,81
21698,101,7677,1,5,4,6,4,3,303,5,4,81
21699,101,7677,1,5,4,6,4,4,865,6,3,81
21700,101,7677,1,5,4,6,4,2,543,7,2,81
21701,101,7677,1,5,4,6,4,1,505,8,1,81
21756,101,1858,0,5,6,6,2,1,642,1,3,82
21757,101,1858,0,5,6,6,2,2,443,2,2,82
21758,101,1858,0,5,6,6,2,4,279,3,1,82
21852,101,1681,0,8,9,2,9,1,380,1,3,83
21853,101,1681,0,8,9,2,9,2,486,2,2,83
21854,101,1681,0,8,9,2,9,4,376,3,1,83
21978,101,2003,0,6,7,8,3,1,678,1,2,84
21979,101,2003,0,6,7,8,3,2,919,2,1,84
22036,101,3285,1,8,4,7,4,1,779,1,3,85
22037,101,3285,1,8,4,7,4,2,606,2,2,85
22038,101,3285,1,8,4,7,4,1,1188,3,1,85
22089,101,5805,1,5,5,4,8,1,671,1,7,86
22090,101,5805,1,5,5,4,8,3,487,2,6,86
22091,101,5805,1,5,5,4,8,4,517,3,5,86
22092,101,5805,1,5,5,4,8,2,588,4,4,86
22093,101,5805,1,5,5,4,8,1,482,5,3,86
22094,101,5805,1,5,5,4,8,2,1446,6,2,86
22095,101,5805,1,5,5,4,8,1,569,7,1,86
22170,101,3509,0,2,7,6,2,1,827,1,4,87
22171,101,3509,0,2,7,6,2,2,949,2,3,87
22172,101,3509,0,2,7,6,2,1,753,3,2,87
22173,101,3509,0,2,7,6,2,4,251,4,1,87
22233,101,3524,1,9,7,2,8,1,662,1,3,88
22234,101,3524,1,9,7,2,8,2,1315,2,2,88
22235,101,3524,1,9,7,2,8,1,951,3,1,88
22390,101,4593,0,5,5,4,7,1,728,1,6,89
22391,101,4593,0,5,5,4,7,2,807,2,5,89
22392,101,4593,0,5,5,4,7,4,464,3,4,89
22393,101,4593,0,5,5,4,7,3,270,4,3,89
22394,101,4593,0,5,5,4,7,1,705,5,2,89
22395,101,4593,0,5,5,4,7,2,681,6,1,89
22429,101,3831,1,6,3,3,9,1,860,1,4,90
22430,101,3831,1,6,3,3,9,2,746,2,3,90
22431,101,3831,1,6,3,3,9,1,1113,3,2,90
22432,101,3831,1,6,3,3,9,3,351,4,1,90
22483,101,1981,0,3,9,9,2,1,521,1,2,91
22484,101,1981,0,3,9,9,2,2,1093,2,1,91
22558,101,1024,0,4,9,7,2,1,559,1,2,92
22559,101,1024,0,4,9,7,2,2,120,2,1,92
22630,101,6559,0,6,6,3,8,1,516,1,9,93
22631,101,6559,0,6,6,3,8,2,611,2,8,93
22632,101,6559,0,6,6,3,8,1,631,3,7,93
22633,101,6559,0,6,6,3,8,2,1026,4,6,93
22634,101,6559,0,6,6,3,8,1,672,5,5,93
22635,101,6559,0,6,6,3,8,3,466,6,4,93
22636,101,6559,0,6,6,3,8,4,526,7,3,93
22637,101,6559,0,6,6,3,8,3,377,8,2,93
22638,101,6559,0,6,6,3,8,2,415,9,1,93
22798,101,1888,1,9,7,3,8,1,871,1,3,94
22799,101,1888,1,9,7,3,8,2,476,2,2,94
22800,101,1888,1,9,7,3,8,1,38,3,1,94
23139,101,7852,0,7,6,4,9,1,754,1,8,95
23140,101,7852,0,7,6,4,9,2,920,2,7,95
23141,101,7852,0,7,6,4,9,1,1058,3,6,95
23142,101,7852,0,7,6,4,9,2,765,4,5,95
23143,101,7852,0,7,6,4,9,4,528,5,4,95
23144,101,7852,0,7,6,4,9,3,1158,6,3,95
23145,101,7852,0,7,6,4,9,4,580,7,2,95
23146,101,7852,0,7,6,4,9,2,614,8,1,95
23321,101,1715,0,3,9,9,2,1,628,1,2,96
23322,101,1715,0,3,9,9,2,2,709,2,1,96
23381,101,2226,0,2,9,6,2,3,283,1,5,97
23382,101,2226,0,2,9,6,2,4,211,2,4,97
23383,101,2226,0,2,9,6,2,2,466,3,3,97
23384,101,2226,0,2,9,6,2,1,600,4,2,97
23385,101,2226,0,2,9,6,2,2,16,5,1,97
23647,101,2370,1,6,1,8,4,1,382,1,3,98
23648,101,2370,1,6,1,8,4,2,1232,2,2,98
23649,101,2370,1,6,1,8,4,1,278,3,1,98
23920,101,2290,1,9,5,2,9,1,575,1,3,99
23921,101,2290,1,9,5,2,9,2,813,2,2,99
23922,101,2290,1,9,5,2,9,1,443,3,1,99
23940,101,2148,0,6,9,9,2,1,476,1,2,100
23941,101,2148,0,6,9,9,2,2,1190,2,1,100
38,102,8396,0,6,8,4,9,1,516,1,11,1
39,102,8396,0,6,8,4,9,2,599,2,10,1
40,102,8396,0,6,8,4,9,1,398,3,9,1
41,102,8396,0,6,8,4,9,4,210,4,8,1
42,102,8396,0,6,8,4,9,3,109,5,7,1
43,102,8396,0,6,8,4,9,1,640,6,6,1
44,102,8396,0,6,8,4,9,3,1433,7,5,1
45,102,8396,0,6,8,4,9,4,755,8,4,1
46,102,8396,0,6,8,4,9,3,284,9,3,1
47,102,8396,0,6,8,4,9,4,1751,10,2,1
48,102,8396,0,6,8,4,9,2,320,11,1,1
216,102,4637,0,1,6,8,3,1,781,1,9,2
217,102,4637,0,1,6,8,3,2,541,2,8,2
218,102,4637,0,1,6,8,3,4,97,3,7,2
219,102,4637,0,1,6,8,3,3,145,4,6,2
220,102,4637,0,1,6,8,3,1,1284,5,5,2
221,102,4637,0,1,6,8,3,3,200,6,4,2
222,102,4637,0,1,6,8,3,4,235,7,3,2
223,102,4637,0,1,6,8,3,2,417,8,2,2
224,102,4637,0,1,6,8,3,1,13,9,1,2
277,102,1936,1,6,1,9,2,1,390,1,5,3
278,102,1936,1,6,1,9,2,2,560,2,4,3
279,102,1936,1,6,1,9,2,1,242,3,3,3
280,102,1936,1,6,1,9,2,3,147,4,2,3
281,102,1936,1,6,1,9,2,1,85,5,1,3
330,102,1653,1,9,8,3,8,1,401,1,4,4
331,102,1653,1,9,8,3,8,2,368,2,3,4
332,102,1653,1,9,8,3,8,1,332,3,2,4
333,102,1653,1,9,8,3,8,3,110,4,1,4
372,102,3104,0,6,8,3,9,1,286,1,8,5
373,102,3104,0,6,8,3,9,2,467,2,7,5
374,102,3104,0,6,8,3,9,1,152,3,6,5
375,102,3104,0,6,8,3,9,3,222,4,5,5
376,102,3104,0,6,8,3,9,4,475,5,4,5
377,102,3104,0,6,8,3,9,2,357,6,3,5
378,102,3104,0,6,8,3,9,1,244,7,2,5
379,102,3104,0,6,8,3,9,2,180,8,1,5
433,102,2982,0,6,6,3,6,1,231,1,8,6
434,102,2982,0,6,6,3,6,2,430,2,7,6
435,102,2982,0,6,6,3,6,4,184,3,6,6
436,102,2982,0,6,6,3,6,3,288,4,5,6
437,102,2982,0,6,6,3,6,4,180,5,4,6
438,102,2982,0,6,6,3,6,2,449,6,3,6
439,102,2982,0,6,6,3,6,1,326,7,2,6
440,102,2982,0,6,6,3,6,2,214,8,1,6
555,102,2670,1,8,7,8,3,1,410,1,6,7
556,102,2670,1,8,7,8,3,2,524,2,5,7
557,102,2670,1,8,7,8,3,1,650,3,4,7
558,102,2670,1,8,7,8,3,3,287,4,3,7
559,102,2670,1,8,7,8,3,4,134,5,2,7
560,102,2670,1,8,7,8,3,2,93,6,1,7
728,102,5158,0,3,6,6,3,1,755,1,9,8
729,102,5158,0,3,6,6,3,2,395,2,8,8
730,102,5158,0,3,6,6,3,4,120,3,7,8
731,102,5158,0,3,6,6,3,3,294,4,6,8
732,102,5158,0,3,6,6,3,1,1385,5,5,8
733,102,5158,0,3,6,6,3,2,353,6,4,8
734,102,5158,0,3,6,6,3,4,168,7,3,8
735,102,5158,0,3,6,6,3,3,458,8,2,8
736,102,5158,0,3,6,6,3,4,275,9,1,8
796,102,3447,1,7,4,4,9,1,367,1,9,9
797,102,3447,1,7,4,4,9,2,508,2,8,9
798,102,3447,1,7,4,4,9,1,270,3,7,9
799,102,3447,1,7,4,4,9,3,178,4,6,9
800,102,3447,1,7,4,4,9,1,138,5,5,9
801,102,3447,1,7,4,4,9,3,86,6,4,9
802,102,3447,1,7,4,4,9,4,370,7,3,9
803,102,3447,1,7,4,4,9,2,325,8,2,9
804,102,3447,1,7,4,4,9,1,348,9,1,9
869,102,4065,1,4,1,2,9,1,428,1,9,10
870,102,4065,1,4,1,2,9,2,384,2,8,10
871,102,4065,1,4,1,2,9,1,658,3,7,10
872,102,4065,1,4,1,2,9,3,121,4,6,10
873,102,4065,1,4,1,2,9,4,447,5,5,10
874,102,4065,1,4,1,2,9,3,404,6,4,10
875,102,4065,1,4,1,2,9,1,203,7,3,10
876,102,4065,1,4,1,2,9,2,271,8,2,10
877,102,4065,1,4,1,2,9,1,220,9,1,10
933,102,7884,0,2,3,7,4,1,910,1,15,11
934,102,7884,0,2,3,7,4,2,489,2,14,11
935,102,7884,0,2,3,7,4,1,704,3,13,11
936,102,7884,0,2,3,7,4,2,734,4,12,11
937,102,7884,0,2,3,7,4,1,419,5,11,11
938,102,7884,0,2,3,7,4,3,158,6,10,11
939,102,7884,0,2,3,7,4,4,288,7,9,11
940,102,7884,0,2,3,7,4,2,213,8,8,11
941,102,7884,0,2,3,7,4,1,406,9,7,11
942,102,7884,0,2,3,7,4,3,239,10,6,11
943,102,7884,0,2,3,7,4,4,389,11,5,11
944,102,7884,0,2,3,7,4,3,696,12,4,11
945,102,7884,0,2,3,7,4,4,296,13,3,11
946,102,7884,0,2,3,7,4,2,189,14,2,11
947,102,7884,0,2,3,7,4,1,192,15,1,11
1248,102,4537,0,4,8,2,8,1,191,1,10,12
1249,102,4537,0,4,8,2,8,2,596,2,9,12
1250,102,4537,0,4,8,2,8,4,421,3,8,12
1251,102,4537,0,4,8,2,8,3,491,4,7,12
1252,102,4537,0,4,8,2,8,4,706,5,6,12
1253,102,4537,0,4,8,2,8,3,463,6,5,12
1254,102,4537,0,4,8,2,8,4,201,7,4,12
1255,102,4537,0,4,8,2,8,2,200,8,3,12
1256,102,4537,0,4,8,2,8,1,251,9,2,12
1257,102,4537,0,4,8,2,8,2,28,10,1,12
1321,102,9254,0,8,8,2,8,1,351,1,12,13
1322,102,9254,0,8,8,2,8,2,604,2,11,13
1323,102,9254,0,8,8,2,8,1,315,3,10,13
1324,102,9254,0,8,8,2,8,3,446,4,9,13
1325,102,9254,0,8,8,2,8,2,783,5,8,13
1326,102,9254,0,8,8,2,8,4,230,6,7,13
1327,102,9254,0,8,8,2,8,3,1635,7,6,13
1328,102,9254,0,8,8,2,8,4,1179,8,5,13
1329,102,9254,0,8,8,2,8,2,753,9,4,13
1330,102,9254,0,8,8,2,8,4,755,10,3,13
1331,102,9254,0,8,8,2,8,3,330,11,2,13
1332,102,9254,0,8,8,2,8,2,352,12,1,13
1382,102,2951,1,6,1,8,2,1,459,1,5,14
1383,102,2951,1,6,1,8,2,2,361,2,4,14
1384,102,2951,1,6,1,8,2,4,278,3,3,14
1385,102,2951,1,6,1,8,2,3,672,4,2,14
1386,102,2951,1,6,1,8,2,1,601,5,1,14
1592,102,2422,0,4,9,9,2,1,328,1,6,15
1593,102,2422,0,4,9,9,2,2,807,2,5,15
1594,102,2422,0,4,9,9,2,4,139,3,4,15
1595,102,2422,0,4,9,9,2,3,292,4,3,15
1596,102,2422,0,4,9,9,2,1,240,5,2,15
1597,102,2422,0,4,9,9,2,2,43,6,1,15
1629,102,3882,1,7,3,4,6,1,516,1,8,16
1630,102,3882,1,7,3,4,6,2,417,2,7,16
1631,102,3882,1,7,3,4,6,4,112,3,6,16
1632,102,3882,1,7,3,4,6,3,401,4,5,16
1633,102,3882,1,7,3,4,6,4,389,5,4,16
1634,102,3882,1,7,3,4,6,1,424,6,3,16
1635,102,3882,1,7,3,4,6,2,602,7,2,16
1636,102,3882,1,7,3,4,6,1,176,8,1,16
1883,102,1717,1,9,6,7,3,1,559,1,3,17
1884,102,1717,1,9,6,7,3,2,497,2,2,17
1885,102,1717,1,9,6,7,3,1,257,3,1,17
2122,102,2423,1,8,4,8,2,1,357,1,7,18
2123,102,2423,1,8,4,8,2,2,610,2,6,18
2124,102,2423,1,8,4,8,2,1,323,3,5,18
2125,102,2423,1,8,4,8,2,3,186,4,4,18
2126,102,2423,1,8,4,8,2,4,113,5,3,18
2127,102,2423,1,8,4,8,2,2,84,6,2,18
2128,102,2423,1,8,4,8,2,1,53,7,1,18
2161,102,2222,1,9,8,3,8,1,339,1,6,19
2162,102,2222,1,9,8,3,8,2,485,2,5,19
2163,102,2222,1,9,8,3,8,3,250,3,4,19
2164,102,2222,1,9,8,3,8,1,270,4,3,19
2165,102,2222,1,9,8,3,8,2,231,5,2,19
2166,102,2222,1,9,8,3,8,1,96,6,1,19
2540,102,4224,0,7,8,4,7,1,274,1,9,20
2541,102,4224,0,7,8,4,7,2,400,2,8,20
2542,102,4224,0,7,8,4,7,4,131,3,7,20
2543,102,4224,0,7,8,4,7,3,164,4,6,20
2544,102,4224,0,7,8,4,7,1,522,5,5,20
2545,102,4224,0,7,8,4,7,3,119,6,4,20
2546,102,4224,0,7,8,4,7,4,961,7,3,20
2547,102,4224,0,7,8,4,7,2,329,8,2,20
2548,102,4224,0,7,8,4,7,1,468,9,1,20
2918,102,4312,1,7,8,2,8,1,326,1,9,21
2919,102,4312,1,7,8,2,8,2,423,2,8,21
2920,102,4312,1,7,8,2,8,1,437,3,7,21
2921,102,4312,1,7,8,2,8,2,304,4,6,21
2922,102,4312,1,7,8,2,8,4,246,5,5,21
2923,102,4312,1,7,8,2,8,3,230,6,4,21
2924,102,4312,1,7,8,2,8,1,402,7,3,21
2925,102,4312,1,7,8,2,8,2,377,8,2,21
2926,102,4312,1,7,8,2,8,1,660,9,1,21
3046,102,6650,1,7,7,8,2,1,382,1,9,22
3047,102,6650,1,7,7,8,2,2,1269,2,8,22
3048,102,6650,1,7,7,8,2,1,478,3,7,22
3049,102,6650,1,7,7,8,2,2,859,4,6,22
3050,102,6650,1,7,7,8,2,1,1258,5,5,22
3051,102,6650,1,7,7,8,2,4,323,6,4,22
3052,102,6650,1,7,7,8,2,3,376,7,3,22
3053,102,6650,1,7,7,8,2,2,464,8,2,22
3054,102,6650,1,7,7,8,2,1,183,9,1,22
3100,102,4707,1,2,1,7,2,1,316,1,10,23
3101,102,4707,1,2,1,7,2,2,314,2,9,23
3102,102,4707,1,2,1,7,2,1,577,3,8,23
3103,102,4707,1,2,1,7,2,2,797,4,7,23
3104,102,4707,1,2,1,7,2,3,391,5,6,23
3105,102,4707,1,2,1,7,2,4,270,6,5,23
3106,102,4707,1,2,1,7,2,3,262,7,4,23
3107,102,4707,1,2,1,7,2,1,181,8,3,23
3108,102,4707,1,2,1,7,2,2,364,9,2,23
3109,102,4707,1,2,1,7,2,1,241,10,1,23
3148,102,2405,0,3,5,4,9,1,202,1,5,24
3149,102,2405,0,3,5,4,9,2,321,2,4,24
3150,102,2405,0,3,5,4,9,1,542,3,3,24
3151,102,2405,0,3,5,4,9,2,400,4,2,24
3152,102,2405,0,3,5,4,9,1,372,5,1,24
3253,102,2898,1,6,7,6,3,1,319,1,7,25
3254,102,2898,1,6,7,6,3,2,445,2,6,25
3255,102,2898,1,6,7,6,3,4,197,3,5,25
3256,102,2898,1,6,7,6,3,3,423,4,4,25
3257,102,2898,1,6,7,6,3,1,504,5,3,25
3258,102,2898,1,6,7,6,3,2,224,6,2,25
3259,102,2898,1,6,7,6,3,1,106,7,1,25
3305,102,4811,0,8,9,7,2,1,253,1,10,26
3306,102,4811,0,8,9,7,2,2,505,2,9,26
3307,102,4811,0,8,9,7,2,1,454,3,8,26
3308,102,4811,0,8,9,7,2,2,540,4,7,26
3309,102,4811,0,8,9,7,2,1,251,5,6,26
3310,102,4811,0,8,9,7,2,3,389,6,5,26
3311,102,4811,0,8,9,7,2,4,281,7,4,26
3312,102,4811,0,8,9,7,2,2,158,8,3,26
3313,102,4811,0,8,9,7,2,1,456,9,2,26
3314,102,4811,0,8,9,7,2,2,539,10,1,26
3361,102,1511,0,3,6,6,3,1,528,1,3,27
3362,102,1511,0,3,6,6,3,2,457,2,2,27
3363,102,1511,0,3,6,6,3,1,73,3,1,27
3555,102,7207,1,6,5,9,4,1,620,1,9,28
3556,102,7207,1,6,5,9,4,2,766,2,8,28
3557,102,7207,1,6,5,9,4,1,461,3,7,28
3558,102,7207,1,6,5,9,4,3,2536,4,6,28
3559,102,7207,1,6,5,9,4,4,844,5,5,28
3560,102,7207,1,6,5,9,4,2,283,6,4,28
3561,102,7207,1,6,5,9,4,1,149,7,3,28
3562,102,7207,1,6,5,9,4,3,165,8,2,28
3563,102,7207,1,6,5,9,4,1,153,9,1,28
3729,102,1862,1,8,1,2,8,1,227,1,5,29
3730,102,1862,1,8,1,2,8,2,420,2,4,29
3731,102,1862,1,8,1,2,8,1,409,3,3,29
3732,102,1862,1,8,1,2,8,3,163,4,2,29
3733,102,1862,1,8,1,2,8,4,47,5,1,29
3905,102,1374,1,7,1,3,9,1,396,1,3,30
3906,102,1374,1,7,1,3,9,2,384,2,2,30
3907,102,1374,1,7,1,3,9,1,155,3,1,30
4063,102,915,0,4,8,2,9,1,191,1,3,31
4064,102,915,0,4,8,2,9,2,367,2,2,31
4065,102,915,0,4,8,2,9,1,26,3,1,31
4510,102,1231,1,6,7,8,3,1,360,1,3,32
4511,102,1231,1,6,7,8,3,2,374,2,2,32
4512,102,1231,1,6,7,8,3,1,117,3,1,32
4582,102,7220,0,6,6,4,8,1,445,1,11,33
4583,102,7220,0,6,6,4,8,2,506,2,10,33
4584,102,7220,0,6,6,4,8,4,300,3,9,33
4585,102,7220,0,6,6,4,8,3,436,4,8,33
4586,102,7220,0,6,6,4,8,1,776,5,7,33
4587,102,7220,0,6,6,4,8,3,734,6,6,33
4588,102,7220,0,6,6,4,8,4,796,7,5,33
4589,102,7220,0,6,6,4,8,3,519,8,4,33
4590,102,7220,0,6,6,4,8,4,432,9,3,33
4591,102,7220,0,6,6,4,8,3,398,10,2,33
4592,102,7220,0,6,6,4,8,2,596,11,1,33
4694,102,1615,0,7,7,2,7,1,345,1,3,34
4695,102,1615,0,7,7,2,7,2,785,2,2,34
4696,102,1615,0,7,7,2,7,1,71,3,1,34
4781,102,1353,0,4,8,2,8,1,266,1,3,35
4782,102,1353,0,4,8,2,8,2,596,2,2,35
4783,102,1353,0,4,8,2,8,1,96,3,1,35
4854,102,1586,1,9,8,3,7,1,438,1,3,36
4855,102,1586,1,9,8,3,7,2,230,2,2,36
4856,102,1586,1,9,8,3,7,1,466,3,1,36
4993,102,2341,1,7,4,2,7,1,196,1,5,37
4994,102,2341,1,7,4,2,7,2,408,2,4,37
4995,102,2341,1,7,4,2,7,1,396,3,3,37
4996,102,2341,1,7,4,2,7,2,616,4,2,37
4997,102,2341,1,7,4,2,7,1,160,5,1,37
5059,102,2078,1,8,4,4,7,1,505,1,3,38
5060,102,2078,1,8,4,4,7,2,354,2,2,38
5061,102,2078,1,8,4,4,7,1,773,3,1,38
5226,102,2578,0,1,6,9,3,1,224,1,7,39
5227,102,2578,0,1,6,9,3,2,312,2,6,39
5228,102,2578,0,1,6,9,3,1,308,3,5,39
5229,102,2578,0,1,6,9,3,3,187,4,4,39
5230,102,2578,0,1,6,9,3,4,197,5,3,39
5231,102,2578,0,1,6,9,3,2,155,6,2,39
5232,102,2578,0,1,6,9,3,1,474,7,1,39
5284,102,2320,0,5,7,4,9,1,259,1,6,40
5285,102,2320,0,5,7,4,9,2,450,2,5,40
5286,102,2320,0,5,7,4,9,1,506,3,4,40
5287,102,2320,0,5,7,4,9,2,258,4,3,40
5288,102,2320,0,5,7,4,9,4,165,5,2,40
5289,102,2320,0,5,7,4,9,3,72,6,1,40
5326,102,7182,0,7,2,3,7,1,189,1,12,41
5327,102,7182,0,7,2,3,7,2,360,2,11,41
5328,102,7182,0,7,2,3,7,1,659,3,10,41
5329,102,7182,0,7,2,3,7,2,1275,4,9,41
5330,102,7182,0,7,2,3,7,1,1108,5,8,41
5331,102,7182,0,7,2,3,7,3,168,6,7,41
5332,102,7182,0,7,2,3,7,4,378,7,6,41
5333,102,7182,0,7,2,3,7,2,320,8,5,41
5334,102,7182,0,7,2,3,7,4,580,9,4,41
5335,102,7182,0,7,2,3,7,3,463,10,3,41
5336,102,7182,0,7,2,3,7,4,360,11,2,41
5337,102,7182,0,7,2,3,7,3,39,12,1,41
5422,102,1140,1,8,5,2,9,1,279,1,3,42
5423,102,1140,1,8,5,2,9,2,372,2,2,42
5424,102,1140,1,8,5,2,9,1,127,3,1,42
5462,102,5467,1,4,7,7,3,2,766,1,7,43
5463,102,5467,1,4,7,7,3,1,505,2,6,43
5464,102,5467,1,4,7,7,3,2,1927,3,5,43
5465,102,5467,1,4,7,7,3,3,505,4,4,43
5466,102,5467,1,4,7,7,3,4,298,5,3,43
5467,102,5467,1,4,7,7,3,3,247,6,2,43
5468,102,5467,1,4,7,7,3,1,281,7,1,43
5694,102,1421,1,5,3,4,6,1,268,1,3,44
5695,102,1421,1,5,3,4,6,2,444,2,2,44
5696,102,1421,1,5,3,4,6,1,297,3,1,44
5897,102,4391,1,7,1,2,8,1,194,1,9,45
5898,102,4391,1,7,1,2,8,2,389,2,8,45
5899,102,4391,1,7,1,2,8,1,359,3,7,45
5900,102,4391,1,7,1,2,8,3,345,4,6,45
5901,102,4391,1,7,1,2,8,4,554,5,5,45
5902,102,4391,1,7,1,2,8,3,139,6,4,45
5903,102,4391,1,7,1,2,8,1,233,7,3,45
5904,102,4391,1,7,1,2,8,2,692,8,2,45
5905,102,4391,1,7,1,2,8,1,527,9,1,45
5976,102,3325,1,9,6,3,9,1,357,1,7,46
5977,102,3325,1,9,6,3,9,2,513,2,6,46
5978,102,3325,1,9,6,3,9,1,363,3,5,46
5979,102,3325,1,9,6,3,9,3,172,4,4,46
5980,102,3325,1,9,6,3,9,4,267,5,3,46
5981,102,3325,1,9,6,3,9,2,323,6,2,46
5982,102,3325,1,9,6,3,9,1,636,7,1,46
6086,102,2992,0,4,6,2,6,1,202,1,8,47
6087,102,2992,0,4,6,2,6,2,609,2,7,47
6088,102,2992,0,4,6,2,6,1,134,3,6,47
6089,102,2992,0,4,6,2,6,3,164,4,5,47
6090,102,2992,0,4,6,2,6,4,309,5,4,47
6091,102,2992,0,4,6,2,6,2,187,6,3,47
6092,102,2992,0,4,6,2,6,1,343,7,2,47
6093,102,2992,0,4,6,2,6,2,313,8,1,47
6145,102,4894,0,6,9,6,2,1,418,1,8,48
6146,102,4894,0,6,9,6,2,2,414,2,7,48
6147,102,4894,0,6,9,6,2,1,1282,3,6,48
6148,102,4894,0,6,9,6,2,2,409,4,5,48
6149,102,4894,0,6,9,6,2,4,122,5,4,48
6150,102,4894,0,6,9,6,2,3,394,6,3,48
6151,102,4894,0,6,9,6,2,4,190,7,2,48
6152,102,4894,0,6,9,6,2,2,902,8,1,48
6213,102,1161,1,8,1,7,2,1,343,1,3,49
6214,102,1161,1,8,1,7,2,2,303,2,2,49
6215,102,1161,1,8,1,7,2,1,153,3,1,49
6240,102,1519,1,7,1,4,9,1,238,1,3,50
6241,102,1519,1,7,1,4,9,2,348,2,2,50
6242,102,1519,1,7,1,4,9,1,563,3,1,50
6471,102,2526,0,4,8,2,8,1,137,1,5,51
6472,102,2526,0,4,8,2,8,2,882,2,4,51
6473,102,2526,0,4,8,2,8,1,437,3,3,51
6474,102,2526,0,4,8,2,8,2,328,4,2,51
6475,102,2526,0,4,8,2,8,4,120,5,1,51
6526,102,2410,0,7,6,4,9,1,169,1,6,52
6527,102,2410,0,7,6,4,9,2,392,2,5,52
6528,102,2410,0,7,6,4,9,1,628,3,4,52
6529,102,2410,0,7,6,4,9,3,154,4,3,52
6530,102,2410,0,7,6,4,9,4,152,5,2,52
6531,102,2410,0,7,6,4,9,2,323,6,1,52
6609,102,4895,0,3,9,4,7,1,270,1,9,53
6610,102,4895,0,3,9,4,7,2,1180,2,8,53
6611,102,4895,0,3,9,4,7,1,280,3,7,53
6612,102,4895,0,3,9,4,7,3,204,4,6,53
6613,102,4895,0,3,9,4,7,4,419,5,5,53
6614,102,4895,0,3,9,4,7,3,627,6,4,53
6615,102,4895,0,3,9,4,7,4,430,7,3,53
6616,102,4895,0,3,9,4,7,2,264,8,2,53
6617,102,4895,0,3,9,4,7,1,148,9,1,53
6717,102,3316,0,7,6,2,8,1,443,1,6,54
6718,102,3316,0,7,6,2,8,2,535,2,5,54
6719,102,3316,0,7,6,2,8,4,89,3,4,54
6720,102,3316,0,7,6,2,8,3,332,4,3,54
6721,102,3316,0,7,6,2,8,1,350,5,2,54
6722,102,3316,0,7,6,2,8,2,890,6,1,54
6773,102,2220,1,8,1,4,9,1,1024,1,3,55
6774,102,2220,1,8,1,4,9,2,316,2,2,55
6775,102,2220,1,8,1,4,9,1,469,3,1,55
6848,102,1121,1,5,1,4,9,1,224,1,3,56
6849,102,1121,1,5,1,4,9,2,286,2,2,56
6850,102,1121,1,5,1,4,9,1,268,3,1,56
6947,102,1317,0,6,8,4,8,1,266,1,3,57
6948,102,1317,0,6,8,4,8,2,361,2,2,57
6949,102,1317,0,6,8,4,8,1,298,3,1,57
6987,102,4429,0,6,9,7,2,1,380,1,8,58
6988,102,4429,0,6,9,7,2,2,569,2,7,58
6989,102,4429,0,6,9,7,2,1,528,3,6,58
6990,102,4429,0,6,9,7,2,3,169,4,5,58
6991,102,4429,0,6,9,7,2,4,276,5,4,58
6992,102,4429,0,6,9,7,2,3,413,6,3,58
6993,102,4429,0,6,9,7,2,1,282,7,2,58
6994,102,4429,0,6,9,7,2,2,1035,8,1,58
7515,102,2732,1,7,4,3,9,2,482,1,4,59
7516,102,2732,1,7,4,3,9,1,422,2,3,59
7517,102,2732,1,7,4,3,9,2,1047,3,2,59
7518,102,2732,1,7,4,3,9,1,201,4,1,59
7568,102,1419,1,6,4,6,2,2,298,1,2,60
7569,102,1419,1,6,4,6,2,1,775,2,1,60
8281,102,8706,0,4,6,7,3,1,667,1,10,61
8282,102,8706,0,4,6,7,3,2,438,2,9,61
8283,102,8706,0,4,6,7,3,1,764,3,8,61
8284,102,8706,0,4,6,7,3,3,340,4,7,61
8285,102,8706,0,4,6,7,3,4,231,5,6,61
8286,102,8706,0,4,6,7,3,2,526,6,5,61
8287,102,8706,0,4,6,7,3,1,2225,7,4,61
8288,102,8706,0,4,6,7,3,3,1011,8,3,61
8289,102,8706,0,4,6,7,3,4,870,9,2,61
8290,102,8706,0,4,6,7,3,2,307,10,1,61
10488,102,6576,1,8,6,8,2,1,405,1,12,62
10489,102,6576,1,8,6,8,2,2,223,2,11,62
10490,102,6576,1,8,6,8,2,1,771,3,10,62
10491,102,6576,1,8,6,8,2,2,184,4,9,62
10492,102,6576,1,8,6,8,2,4,283,5,8,62
10493,102,6576,1,8,6,8,2,2,122,6,7,62
10494,102,6576,1,8,6,8,2,3,469,7,6,62
10495,102,6576,1,8,6,8,2,1,1438,8,5,62
10496,102,6576,1,8,6,8,2,3,687,9,4,62
10497,102,6576,1,8,6,8,2,4,437,10,3,62
10498,102,6576,1,8,6,8,2,3,204,11,2,62
10499,102,6576,1,8,6,8,2,1,87,12,1,62
11679,102,7567,0,7,7,2,8,1,690,1,11,63
11680,102,7567,0,7,7,2,8,2,449,2,10,63
11681,102,7567,0,7,7,2,8,1,813,3,9,63
11682,102,7567,0,7,7,2,8,3,131,4,8,63
11683,102,7567,0,7,7,2,8,4,269,5,7,63
11684,102,7567,0,7,7,2,8,2,238,6,6,63
11685,102,7567,0,7,7,2,8,3,1268,7,5,63
11686,102,7567,0,7,7,2,8,4,513,8,4,63
11687,102,7567,0,7,7,2,8,2,250,9,3,63
11688,102,7567,0,7,7,2,8,1,1395,10,2,63
11689,102,7567,0,7,7,2,8,2,250,11,1,63
12249,102,6454,0,7,8,9,2,1,460,1,12,64
12250,102,6454,0,7,8,9,2,2,353,2,11,64
12251,102,6454,0,7,8,9,2,4,166,3,10,64
12252,102,6454,0,7,8,9,2,3,146,4,9,64
12253,102,6454,0,7,8,9,2,1,481,5,8,64
12254,102,6454,0,7,8,9,2,2,464,6,7,64
12255,102,6454,0,7,8,9,2,4,253,7,6,64
12256,102,6454,0,7,8,9,2,3,998,8,5,64
12257,102,6454,0,7,8,9,2,1,444,9,4,64
12258,102,6454,0,7,8,9,2,2,903,10,3,64
12259,102,6454,0,7,8,9,2,4,292,11,2,64
12260,102,6454,0,7,8,9,2,3,218,12,1,64
12727,102,6719,1,6,7,8,4,1,435,1,10,65
12728,102,6719,1,6,7,8,4,2,728,2,9,65
12729,102,6719,1,6,7,8,4,1,622,3,8,65
12730,102,6719,1,6,7,8,4,4,351,4,7,65
12731,102,6719,1,6,7,8,4,2,654,5,6,65
12732,102,6719,1,6,7,8,4,3,1537,6,5,65
12733,102,6719,1,6,7,8,4,4,268,7,4,65
12734,102,6719,1,6,7,8,4,3,454,8,3,65
12735,102,6719,1,6,7,8,4,4,230,9,2,65
12736,102,6719,1,6,7,8,4,1,245,10,1,65
13369,102,9103,1,5,1,4,9,1,651,1,13,66
13370,102,9103,1,5,1,4,9,2,542,2,12,66
13371,102,9103,1,5,1,4,9,1,142,3,11,66
13372,102,9103,1,5,1,4,9,3,243,4,10,66
13373,102,9103,1,5,1,4,9,4,91,5,9,66
13374,102,9103,1,5,1,4,9,2,168,6,8,66
13375,102,9103,1,5,1,4,9,1,1262,7,7,66
13376,102,9103,1,5,1,4,9,2,603,8,6,66
13377,102,9103,1,5,1,4,9,3,2062,9,5,66
13378,102,9103,1,5,1,4,9,4,242,10,4,66
13379,102,9103,1,5,1,4,9,1,451,11,3,66
13380,102,9103,1,5,1,4,9,2,960,12,2,66
13381,102,9103,1,5,1,4,9,4,139,13,1,66
13910,102,3367,0,4,7,7,2,1,772,1,7,67
13911,102,3367,0,4,7,7,2,2,556,2,6,67
13912,102,3367,0,4,7,7,2,4,180,3,5,67
13913,102,3367,0,4,7,7,2,3,399,4,4,67
13914,102,3367,0,4,7,7,2,1,269,5,3,67
13915,102,3367,0,4,7,7,2,2,155,6,2,67
13916,102,3367,0,4,7,7,2,4,214,7,1,67
14973,102,2609,1,8,3,7,4,1,1173,1,5,68
14974,102,2609,1,8,3,7,4,2,377,2,4,68
14975,102,2609,1,8,3,7,4,4,141,3,3,68
14976,102,2609,1,8,3,7,4,1,207,4,2,68
14977,102,2609,1,8,3,7,4,3,139,5,1,68
17274,102,3463,1,8,6,7,4,1,375,1,6,69
17275,102,3463,1,8,6,7,4,2,479,2,5,69
17276,102,3463,1,8,6,7,4,4,128,3,4,69
17277,102,3463,1,8,6,7,4,3,550,4,3,69
17278,102,3463,1,8,6,7,4,4,462,5,2,69
17279,102,3463,1,8,6,7,4,3,706,6,1,69
18864,102,9216,0,7,7,7,4,1,854,1,11,70
18865,102,9216,0,7,7,7,4,2,643,2,10,70
18866,102,9216,0,7,7,7,4,1,1477,3,9,70
18867,102,9216,0,7,7,7,4,2,1025,4,8,70
18868,102,9216,0,7,7,7,4,4,282,5,7,70
18869,102,9216,0,7,7,7,4,3,909,6,6,70
18870,102,9216,0,7,7,7,4,4,1224,7,5,70
18871,102,9216,0,7,7,7,4,3,333,8,4,70
18872,102,9216,0,7,7,7,4,4,499,9,3,70
18873,102,9216,0,7,7,7,4,3,213,10,2,70
18874,102,9216,0,7,7,7,4,2,53,11,1,70
19397,102,2572,1,8,7,9,3,1,581,1,5,71
19398,102,2572,1,8,7,9,3,2,632,2,4,71
19399,102,2572,1,8,7,9,3,1,101,3,3,71
19400,102,2572,1,8,7,9,3,3,410,4,2,71
19401,102,2572,1,8,7,9,3,1,298,5,1,71
19937,102,2328,1,8,7,9,2,1,378,1,4,72
19938,102,2328,1,8,7,9,2,2,897,2,3,72
19939,102,2328,1,8,7,9,2,3,341,3,2,72
19940,102,2328,1,8,7,9,2,1,162,4,1,72
20490,102,5462,0,5,6,9,3,1,436,1,8,73
20491,102,5462,0,5,6,9,3,2,705,2,7,73
20492,102,5462,0,5,6,9,3,4,501,3,6,73
20493,102,5462,0,5,6,9,3,3,360,4,5,73
20494,102,5462,0,5,6,9,3,1,101,5,4,73
20495,102,5462,0,5,6,9,3,2,673,6,3,73
20496,102,5462,0,5,6,9,3,1,657,7,2,73
20497,102,5462,0,5,6,9,3,2,807,8,1,73
21194,102,9117,1,6,3,3,6,1,339,1,10,74
21195,102,9117,1,6,3,3,6,2,739,2,9,74
21196,102,9117,1,6,3,3,6,4,172,3,8,74
21197,102,9117,1,6,3,3,6,3,511,4,7,74
21198,102,9117,1,6,3,3,6,1,457,5,6,74
21199,102,9117,1,6,3,3,6,3,2770,6,5,74
21200,102,9117,1,6,3,3,6,1,295,7,4,74
21201,102,9117,1,6,3,3,6,4,1062,8,3,74
21202,102,9117,1,6,3,3,6,2,801,9,2,74
21203,102,9117,1,6,3,3,6,1,480,10,1,74
21256,102,2520,0,1,8,9,2,1,499,1,6,75
21257,102,2520,0,1,8,9,2,2,397,2,5,75
21258,102,2520,0,1,8,9,2,4,207,3,4,75
21259,102,2520,0,1,8,9,2,3,335,4,3,75
21260,102,2520,0,1,8,9,2,4,131,5,2,75
21261,102,2520,0,1,8,9,2,1,300,6,1,75
21370,102,7506,1,7,1,3,9,1,427,1,10,76
21371,102,7506,1,7,1,3,9,2,315,2,9,76
21372,102,7506,1,7,1,3,9,1,475,3,8,76
21373,102,7506,1,7,1,3,9,4,302,4,7,76
21374,102,7506,1,7,1,3,9,2,260,5,6,76
21375,102,7506,1,7,1,3,9,1,1241,6,5,76
21376,102,7506,1,7,1,3,9,3,1748,7,4,76
21377,102,7506,1,7,1,3,9,4,644,8,3,76
21378,102,7506,1,7,1,3,9,2,352,9,2,76
21379,102,7506,1,7,1,3,9,1,432,10,1,76
21440,102,4122,0,4,7,7,2,1,422,1,8,77
21441,102,4122,0,4,7,7,2,2,540,2,7,77
21442,102,4122,0,4,7,7,2,4,187,3,6,77
21443,102,4122,0,4,7,7,2,3,574,4,5,77
21444,102,4122,0,4,7,7,2,1,199,5,4,77
21445,102,4122,0,4,7,7,2,2,168,6,3,77
21446,102,4122,0,4,7,7,2,4,894,7,2,77
21447,102,4122,0,4,7,7,2,2,256,8,1,77
21508,102,4587,0,6,9,3,7,1,328,1,9,78
21509,102,4587,0,6,9,3,7,2,849,2,8,78
21510,102,4587,0,6,9,3,7,1,257,3,7,78
21511,102,4587,0,6,9,3,7,3,179,4,6,78
21512,102,4587,0,6,9,3,7,4,683,5,5,78
21513,102,4587,0,6,9,3,7,3,279,6,4,78
21514,102,4587,0,6,9,3,7,4,243,7,3,78
21515,102,4587,0,6,9,3,7,2,581,8,2,78
21516,102,4587,0,6,9,3,7,1,175,9,1,78
21598,102,8951,0,2,7,7,3,1,1098,1,13,79
21599,102,8951,0,2,7,7,3,2,820,2,12,79
21600,102,8951,0,2,7,7,3,1,222,3,11,79
21601,102,8951,0,2,7,7,3,2,986,4,10,79
21602,102,8951,0,2,7,7,3,1,912,5,9,79
21603,102,8951,0,2,7,7,3,3,169,6,8,79
21604,102,8951,0,2,7,7,3,4,409,7,7,79
21605,102,8951,0,2,7,7,3,2,416,8,6,79
21606,102,8951,0,2,7,7,3,1,1357,9,5,79
21607,102,8951,0,2,7,7,3,3,188,10,4,79
21608,102,8951,0,2,7,7,3,4,378,11,3,79
21609,102,8951,0,2,7,7,3,3,250,12,2,79
21610,102,8951,0,2,7,7,3,2,225,13,1,79
21648,102,3622,0,7,7,2,7,1,400,1,7,80
21649,102,3622,0,7,7,2,7,2,945,2,6,80
21650,102,3622,0,7,7,2,7,3,150,3,5,80
21651,102,3622,0,7,7,2,7,4,586,4,4,80
21652,102,3622,0,7,7,2,7,2,269,5,3,80
21653,102,3622,0,7,7,2,7,1,331,6,2,80
21654,102,3622,0,7,7,2,7,2,185,7,1,80
21702,102,4243,1,5,2,4,7,1,524,1,6,81
21703,102,4243,1,5,2,4,7,2,660,2,5,81
21704,102,4243,1,5,2,4,7,3,151,3,4,81
21705,102,4243,1,5,2,4,7,1,497,4,3,81
21706,102,4243,1,5,2,4,7,2,1126,5,2,81
21707,102,4243,1,5,2,4,7,1,448,6,1,81
21782,102,2855,0,7,9,3,7,1,755,1,5,82
21783,102,2855,0,7,9,3,7,2,466,2,4,82
21784,102,2855,0,7,9,3,7,4,108,3,3,82
21785,102,2855,0,7,9,3,7,3,300,4,2,82
21786,102,2855,0,7,9,3,7,4,558,5,1,82
21929,102,4980,1,6,7,6,3,1,483,1,7,83
21930,102,4980,1,6,7,6,3,2,574,2,6,83
21931,102,4980,1,6,7,6,3,1,219,3,5,83
21932,102,4980,1,6,7,6,3,3,99,4,4,83
21933,102,4980,1,6,7,6,3,1,403,5,3,83
21934,102,4980,1,6,7,6,3,2,954,6,2,83
21935,102,4980,1,6,7,6,3,1,1444,7,1,83
21980,102,2202,0,8,9,2,7,1,210,1,6,84
21981,102,2202,0,8,9,2,7,2,395,2,5,84
21982,102,2202,0,8,9,2,7,4,133,3,4,84
21983,102,2202,0,8,9,2,7,3,161,4,3,84
21984,102,2202,0,8,9,2,7,1,172,5,2,84
21985,102,2202,0,8,9,2,7,2,602,6,1,84
22174,102,5110,1,8,6,8,2,1,360,1,9,85
22175,102,5110,1,8,6,8,2,2,295,2,8,85
22176,102,5110,1,8,6,8,2,4,103,3,7,85
22177,102,5110,1,8,6,8,2,3,119,4,6,85
22178,102,5110,1,8,6,8,2,1,457,5,5,85
22179,102,5110,1,8,6,8,2,2,620,6,4,85
22180,102,5110,1,8,6,8,2,4,537,7,3,85
22181,102,5110,1,8,6,8,2,3,744,8,2,85
22182,102,5110,1,8,6,8,2,1,910,9,1,85
22236,102,5980,0,9,6,2,9,1,670,1,9,86
22237,102,5980,0,9,6,2,9,2,406,2,8,86
22238,102,5980,0,9,6,2,9,1,793,3,7,86
22239,102,5980,0,9,6,2,9,3,965,4,6,86
22240,102,5980,0,9,6,2,9,4,882,5,5,86
22241,102,5980,0,9,6,2,9,2,152,6,4,86
22242,102,5980,0,9,6,2,9,4,301,7,3,86
22243,102,5980,0,9,6,2,9,2,605,8,2,86
22244,102,5980,0,9,6,2,9,1,218,9,1,86
22291,102,4474,0,1,4,9,2,1,248,1,10,87
22292,102,4474,0,1,4,9,2,2,515,2,9,87
22293,102,4474,0,1,4,9,2,1,662,3,8,87
22294,102,4474,0,1,4,9,2,2,167,4,7,87
22295,102,4474,0,1,4,9,2,4,191,5,6,87
22296,102,4474,0,1,4,9,2,3,385,6,5,87
22297,102,4474,0,1,4,9,2,2,448,7,4,87
22298,102,4474,0,1,4,9,2,1,363,8,3,87
22299,102,4474,0,1,4,9,2,4,134,9,2,87
22300,102,4474,0,1,4,9,2,1,146,10,1,87
22339,102,4945,0,4,7,9,3,1,644,1,8,88
22340,102,4945,0,4,7,9,3,2,547,2,7,88
22341,102,4945,0,4,7,9,3,3,310,3,6,88
22342,102,4945,0,4,7,9,3,1,1013,4,5,88
22343,102,4945,0,4,7,9,3,3,322,5,4,88
22344,102,4945,0,4,7,9,3,4,694,6,3,88
22345,102,4945,0,4,7,9,3,2,324,7,2,88
22346,102,4945,0,4,7,9,3,1,70,8,1,88
22485,102,3969,0,7,6,3,7,1,440,1,6,89
22486,102,3969,0,7,6,3,7,2,645,2,5,89
22487,102,3969,0,7,6,3,7,1,540,3,4,89
22488,102,3969,0,7,6,3,7,3,448,4,3,89
22489,102,3969,0,7,6,3,7,4,906,5,2,89
22490,102,3969,0,7,6,3,7,2,172,6,1,89
22639,102,4563,1,8,6,7,3,1,430,1,7,90
22640,102,4563,1,8,6,7,3,2,528,2,6,90
22641,102,4563,1,8,6,7,3,1,1019,3,5,90
22642,102,4563,1,8,6,7,3,3,585,4,4,90
22643,102,4563,1,8,6,7,3,4,628,5,3,90
22644,102,4563,1,8,6,7,3,3,178,6,2,90
22645,102,4563,1,8,6,7,3,1,382,7,1,90
22725,102,3855,0,4,7,7,3,1,320,1,7,91
22726,102,3855,0,4,7,7,3,2,875,2,6,91
22727,102,3855,0,4,7,7,3,1,198,3,5,91
22728,102,3855,0,4,7,7,3,3,282,4,4,91
22729,102,3855,0,4,7,7,3,4,342,5,3,91
22730,102,3855,0,4,7,7,3,2,958,6,2,91
22731,102,3855,0,4,7,7,3,1,141,7,1,91
22934,102,5384,0,7,7,9,4,1,168,1,8,92
22935,102,5384,0,7,7,9,4,2,906,2,7,92
22936,102,5384,0,7,7,9,4,1,380,3,6,92
22937,102,5384,0,7,7,9,4,3,139,4,5,92
22938,102,5384,0,7,7,9,4,4,1312,5,4,92
22939,102,5384,0,7,7,9,4,3,645,6,3,92
22940,102,5384,0,7,7,9,4,2,666,7,2,92
22941,102,5384,0,7,7,9,4,1,49,8,1,92
22982,102,5967,0,2,7,7,4,1,1509,1,9,93
22983,102,5967,0,2,7,7,4,2,609,2,8,93
22984,102,5967,0,2,7,7,4,3,568,3,7,93
22985,102,5967,0,2,7,7,4,4,401,4,6,93
22986,102,5967,0,2,7,7,4,3,431,5,5,93
22987,102,5967,0,2,7,7,4,2,216,6,4,93
22988,102,5967,0,2,7,7,4,4,500,7,3,93
22989,102,5967,0,2,7,7,4,3,590,8,2,93
22990,102,5967,0,2,7,7,4,1,14,9,1,93
23089,102,4151,1,7,7,7,3,1,473,1,9,94
23090,102,4151,1,7,7,7,3,2,401,2,8,94
23091,102,4151,1,7,7,7,3,1,162,3,7,94
23092,102,4151,1,7,7,7,3,3,364,4,6,94
23093,102,4151,1,7,7,7,3,4,700,5,5,94
23094,102,4151,1,7,7,7,3,3,277,6,4,94
23095,102,4151,1,7,7,7,3,1,144,7,3,94
23096,102,4151,1,7,7,7,3,2,321,8,2,94
23097,102,4151,1,7,7,7,3,1,378,9,1,94
23477,102,4469,0,4,8,7,2,1,535,1,10,95
23478,102,4469,0,4,8,7,2,2,376,2,9,95
23479,102,4469,0,4,8,7,2,4,209,3,8,95
23480,102,4469,0,4,8,7,2,3,670,4,7,95
23481,102,4469,0,4,8,7,2,4,265,5,6,95
23482,102,4469,0,4,8,7,2,2,180,6,5,95
23483,102,4469,0,4,8,7,2,4,349,7,4,95
23484,102,4469,0,4,8,7,2,3,380,8,3,95
23485,102,4469,0,4,8,7,2,4,175,9,2,95
23486,102,4469,0,4,8,7,2,2,120,10,1,95
23543,102,4842,0,7,8,4,7,1,546,1,9,96
23544,102,4842,0,7,8,4,7,2,418,2,8,96
23545,102,4842,0,7,8,4,7,1,877,3,7,96
23546,102,4842,0,7,8,4,7,2,791,4,6,96
23547,102,4842,0,7,8,4,7,4,212,5,5,96
23548,102,4842,0,7,8,4,7,3,305,6,4,96
23549,102,4842,0,7,8,4,7,4,124,7,3,96
23550,102,4842,0,7,8,4,7,2,769,8,2,96
23551,102,4842,0,7,8,4,7,1,21,9,1,96
23650,102,3469,1,8,7,7,3,1,269,1,7,97
23651,102,3469,1,8,7,7,3,2,855,2,6,97
23652,102,3469,1,8,7,7,3,1,318,3,5,97
23653,102,3469,1,8,7,7,3,3,252,4,4,97
23654,102,3469,1,8,7,7,3,4,146,5,3,97
23655,102,3469,1,8,7,7,3,2,456,6,2,97
23656,102,3469,1,8,7,7,3,1,419,7,1,97
23710,102,4727,1,7,6,2,8,1,664,1,7,98
23711,102,4727,1,7,6,2,8,2,533,2,6,98
23712,102,4727,1,7,6,2,8,1,658,3,5,98
23713,102,4727,1,7,6,2,8,3,447,4,4,98
23714,102,4727,1,7,6,2,8,4,701,5,3,98
23715,102,4727,1,7,6,2,8,3,269,6,2,98
23716,102,4727,1,7,6,2,8,1,582,7,1,98
23758,102,3439,1,9,6,2,6,1,432,1,5,99
23759,102,3439,1,9,6,2,6,2,742,2,4,99
23760,102,3439,1,9,6,2,6,1,770,3,3,99
23761,102,3439,1,9,6,2,6,2,653,4,2,99
23762,102,3439,1,9,6,2,6,1,189,5,1,99
23893,102,1352,1,8,6,9,3,1,399,1,3,100
23894,102,1352,1,8,6,9,3,2,303,2,2,100
23895,102,1352,1,8,6,9,3,1,271,3,1,100
49,103,2554,1,9,1,3,6,1,720,1,5,1
50,103,2554,1,9,1,3,6,2,569,2,4,1
51,103,2554,1,9,1,3,6,1,245,3,3,1
52,103,2554,1,9,1,3,6,3,351,4,2,1
53,103,2554,1,9,1,3,6,1,44,5,1,1
92,103,1278,0,1,9,8,4,1,490,1,2,2
93,103,1278,0,1,9,8,4,2,413,2,1,2
441,103,1923,1,9,1,3,6,1,369,1,3,3
442,103,1923,1,9,1,3,6,2,686,2,2,3
443,103,1923,1,9,1,3,6,1,488,3,1,3
805,103,1748,0,9,9,8,3,1,441,1,4,4
806,103,1748,0,9,9,8,3,2,556,2,3,4
807,103,1748,0,9,9,8,3,1,228,3,2,4
808,103,1748,0,9,9,8,3,2,80,4,1,4
998,103,1909,1,9,1,3,7,1,450,1,3,5
999,103,1909,1,9,1,3,7,2,313,2,2,5
1000,103,1909,1,9,1,3,7,1,482,3,1,5
1140,103,2441,0,9,9,5,7,1,1365,1,2,6
1141,103,2441,0,9,9,5,7,2,624,2,1,6
1190,103,1844,0,9,9,5,6,1,243,1,4,7
1191,103,1844,0,9,9,5,6,2,565,2,3,7
1192,103,1844,0,9,9,5,6,1,374,3,2,7
1193,103,1844,0,9,9,5,6,2,187,4,1,7
1532,103,1871,0,9,9,6,3,1,242,1,4,8
1533,103,1871,0,9,9,6,3,2,560,2,3,8
1534,103,1871,0,9,9,6,3,1,397,3,2,8
1535,103,1871,0,9,9,6,3,2,186,4,1,8
1637,103,3457,1,9,1,5,6,1,337,1,3,9
1638,103,3457,1,9,1,5,6,2,679,2,2,9
1639,103,3457,1,9,1,5,6,1,1851,3,1,9
1814,103,2204,1,9,1,2,6,1,1183,1,3,10
1815,103,2204,1,9,1,2,6,2,462,2,2,10
1816,103,2204,1,9,1,2,6,1,76,3,1,10
1886,103,2135,1,1,1,3,6,1,344,1,3,11
1887,103,2135,1,1,1,3,6,2,385,2,2,11
1888,103,2135,1,1,1,3,6,1,891,3,1,11
2065,103,1368,0,9,9,6,2,1,137,1,4,12
2066,103,1368,0,9,9,6,2,2,475,2,3,12
2067,103,1368,0,9,9,6,2,1,266,3,2,12
2068,103,1368,0,9,9,6,2,2,10,4,1,12
2129,103,1028,1,9,9,6,5,1,146,1,3,13
2130,103,1028,1,9,9,6,5,2,340,2,2,13
2131,103,1028,1,9,9,6,5,1,175,3,1,13
2190,103,851,1,9,9,6,5,1,276,1,2,14
2191,103,851,1,9,9,6,5,2,233,2,1,14
2369,103,1864,0,9,9,3,9,1,231,1,4,15
2370,103,1864,0,9,9,3,9,2,442,2,3,15
2371,103,1864,0,9,9,3,9,1,617,3,2,15
2372,103,1864,0,9,9,3,9,2,100,4,1,15
2460,103,1185,1,9,1,8,2,1,211,1,3,16
2461,103,1185,1,9,1,8,2,2,400,2,2,16
2462,103,1185,1,9,1,8,2,1,212,3,1,16
2513,103,894,0,1,9,6,4,1,242,1,2,17
2514,103,894,0,1,9,6,4,2,318,2,1,17
2549,103,1359,0,5,9,7,2,2,342,1,3,18
2550,103,1359,0,5,9,7,2,1,411,2,2,18
2551,103,1359,0,5,9,7,2,2,131,3,1,18
2597,103,1245,0,5,9,8,4,1,447,1,3,19
2598,103,1245,0,5,9,8,4,2,355,2,2,19
2599,103,1245,0,5,9,8,4,1,53,3,1,19
2684,103,1936,1,1,1,6,3,2,254,1,4,20
2685,103,1936,1,1,1,6,3,1,414,2,3,20
2686,103,1936,1,1,1,6,3,2,560,3,2,20
2687,103,1936,1,1,1,6,3,1,194,4,1,20
2927,103,1254,0,1,9,2,9,1,413,1,2,21
2928,103,1254,0,1,9,2,9,2,524,2,1,21
3055,103,1609,1,9,1,2,8,1,227,1,3,22
3056,103,1609,1,9,1,2,8,2,555,2,2,22
3057,103,1609,1,9,1,2,8,1,447,3,1,22
3192,103,800,1,9,5,4,7,1,307,1,2,23
3193,103,800,1,9,5,4,7,2,184,2,1,23
3260,103,1334,0,1,9,3,6,1,237,1,3,24
3261,103,1334,0,1,9,3,6,2,631,2,2,24
3262,103,1334,0,1,9,3,6,1,56,3,1,24
3315,103,1605,1,9,5,2,7,1,352,1,3,25
3316,103,1605,1,9,5,2,7,2,562,2,2,25
3317,103,1605,1,9,5,2,7,1,246,3,1,25
3364,103,1804,1,5,1,3,7,1,528,1,3,26
3365,103,1804,1,5,1,3,7,2,487,2,2,26
3366,103,1804,1,5,1,3,7,1,266,3,1,26
3435,103,1462,0,1,1,8,4,1,646,1,2,27
3436,103,1462,0,1,1,8,4,2,442,2,1,27
3476,103,1110,1,1,9,4,8,1,330,1,3,28
3477,103,1110,1,1,9,4,8,2,387,2,2,28
3478,103,1110,1,1,9,4,8,1,12,3,1,28
3564,103,5584,1,9,1,2,7,1,1708,1,5,29
3565,103,5584,1,9,1,2,7,2,1368,2,4,29
3566,103,5584,1,9,1,2,7,1,1136,3,3,29
3567,103,5584,1,9,1,2,7,3,218,4,2,29
3568,103,5584,1,9,1,2,7,1,280,5,1,29
3615,103,2389,0,5,9,8,5,1,365,1,4,30
3616,103,2389,0,5,9,8,5,2,616,2,3,30
3617,103,2389,0,5,9,8,5,1,458,3,2,30
3618,103,2389,0,5,9,8,5,2,367,4,1,30
3792,103,2239,1,9,9,4,6,1,1314,1,3,31
3793,103,2239,1,9,9,4,6,2,356,2,2,31
3794,103,2239,1,9,9,4,6,1,118,3,1,31
4155,103,2424,0,1,9,8,3,1,685,1,3,32
4156,103,2424,0,1,9,8,3,2,904,2,2,32
4157,103,2424,0,1,9,8,3,1,182,3,1,32
4199,103,1417,1,9,5,4,7,1,458,1,3,33
4200,103,1417,1,9,5,4,7,2,373,2,2,33
4201,103,1417,1,9,5,4,7,1,144,3,1,33
4546,103,1612,1,9,9,8,2,1,651,1,3,34
4547,103,1612,1,9,9,8,2,2,366,2,2,34
4548,103,1612,1,9,9,8,2,1,197,3,1,34
4697,103,3089,0,5,9,8,3,1,489,1,3,35
4698,103,3089,0,5,9,8,3,2,2106,2,2,35
4699,103,3089,0,5,9,8,3,1,76,3,1,35
4729,103,988,0,5,9,7,3,1,214,1,2,36
4730,103,988,0,5,9,7,3,2,365,2,1,36
4784,103,1017,1,9,1,2,9,1,329,1,3,37
4785,103,1017,1,9,1,2,9,2,183,2,2,37
4786,103,1017,1,9,1,2,9,1,117,3,1,37
4899,103,1667,1,9,1,2,7,1,404,1,3,38
4900,103,1667,1,9,1,2,7,2,495,2,2,38
4901,103,1667,1,9,1,2,7,1,335,3,1,38
4998,103,1154,0,5,9,8,3,1,307,1,2,39
4999,103,1154,0,5,9,8,3,2,547,2,1,39
5153,103,1649,1,9,1,2,7,1,465,1,3,40
5154,103,1649,1,9,1,2,7,2,505,2,2,40
5155,103,1649,1,9,1,2,7,1,199,3,1,40
5188,103,1431,1,9,1,2,7,1,527,1,3,41
5189,103,1431,1,9,1,2,7,2,494,2,2,41
5190,103,1431,1,9,1,2,7,1,154,3,1,41
5338,103,2041,0,1,5,2,7,1,378,1,4,42
5339,103,2041,0,1,5,2,7,2,456,2,3,42
5340,103,2041,0,1,5,2,7,1,331,3,2,42
5341,103,2041,0,1,5,2,7,2,165,4,1,42
5406,103,2055,0,1,9,6,5,1,324,1,4,43
5407,103,2055,0,1,9,6,5,2,322,2,3,43
5408,103,2055,0,1,9,6,5,1,500,3,2,43
5409,103,2055,0,1,9,6,5,2,416,4,1,43
5657,103,1315,0,1,9,6,4,1,316,1,2,44
5658,103,1315,0,1,9,6,4,2,654,2,1,44
5747,103,1423,1,9,1,2,9,1,470,1,3,45
5748,103,1423,1,9,1,2,9,2,424,2,2,45
5749,103,1423,1,9,1,2,9,1,163,3,1,45
5867,103,1183,1,9,9,3,6,1,473,1,3,46
5868,103,1183,1,9,9,3,6,2,377,2,2,46
5869,103,1183,1,9,9,3,6,1,126,3,1,46
5938,103,1143,1,9,5,3,7,1,447,1,3,47
5939,103,1143,1,9,5,3,7,2,238,2,2,47
5940,103,1143,1,9,5,3,7,1,111,3,1,47
6094,103,1065,0,9,9,6,4,1,448,1,3,48
6095,103,1065,0,9,9,6,4,2,231,2,2,48
6096,103,1065,0,9,9,6,4,1,31,3,1,48
6153,103,1086,0,5,9,7,3,1,414,1,2,49
6154,103,1086,0,5,9,7,3,2,273,2,1,49
6476,103,1660,0,9,9,9,2,1,210,1,4,50
6477,103,1660,0,9,9,9,2,2,446,2,3,50
6478,103,1660,0,9,9,9,2,1,342,3,2,50
6479,103,1660,0,9,9,9,2,2,170,4,1,50
6560,103,967,0,1,9,7,2,1,225,1,2,51
6561,103,967,0,1,9,7,2,2,432,2,1,51
6618,103,8647,1,9,9,8,4,1,1087,1,6,52
6619,103,8647,1,9,9,8,4,2,3359,2,5,52
6620,103,8647,1,9,9,8,4,1,772,3,4,52
6621,103,8647,1,9,9,8,4,3,678,4,3,52
6622,103,8647,1,9,9,8,4,4,1012,5,2,52
6623,103,8647,1,9,9,8,4,3,322,6,1,52
6890,103,907,1,9,9,2,8,1,241,1,3,53
6891,103,907,1,9,9,2,8,2,256,2,2,53
6892,103,907,1,9,9,2,8,1,90,3,1,53
6950,103,1865,0,1,9,8,3,1,226,1,4,54
6951,103,1865,0,1,9,8,3,2,386,2,3,54
6952,103,1865,0,1,9,8,3,1,692,3,2,54
6953,103,1865,0,1,9,8,3,2,86,4,1,54
6995,103,3052,1,1,1,7,3,1,298,1,3,55
6996,103,3052,1,1,1,7,3,2,913,2,2,55
6997,103,3052,1,1,1,7,3,1,1339,3,1,55
7080,103,5442,1,9,1,3,8,1,789,1,6,56
7081,103,5442,1,9,1,3,8,2,1049,2,5,56
7082,103,5442,1,9,1,3,8,1,649,3,4,56
7083,103,5442,1,9,1,3,8,3,444,4,3,56
7084,103,5442,1,9,1,3,8,4,696,5,2,56
7085,103,5442,1,9,1,3,8,3,163,6,1,56
7222,103,1988,0,9,5,3,7,1,177,1,3,57
7223,103,1988,0,9,5,3,7,2,597,2,2,57
7224,103,1988,0,9,5,3,7,1,801,3,1,57
7315,103,1260,1,9,9,3,6,1,432,1,3,58
7316,103,1260,1,9,9,3,6,2,291,2,2,58
7317,103,1260,1,9,9,3,6,1,97,3,1,58
7519,103,1067,1,9,9,3,7,1,359,1,3,59
7520,103,1067,1,9,9,3,7,2,195,2,2,59
7521,103,1067,1,9,9,3,7,1,157,3,1,59
7624,103,4166,1,1,1,3,9,1,909,1,6,60
7625,103,4166,1,1,1,3,9,2,1021,2,5,60
7626,103,4166,1,1,1,3,9,1,493,3,4,60
7627,103,4166,1,1,1,3,9,2,110,4,3,60
7628,103,4166,1,1,1,3,9,3,550,5,2,60
7629,103,4166,1,1,1,3,9,1,107,6,1,60
8908,103,5251,1,9,1,2,8,1,644,1,8,61
8909,103,5251,1,9,1,2,8,2,1113,2,7,61
8910,103,5251,1,9,1,2,8,1,408,3,6,61
8911,103,5251,1,9,1,2,8,3,873,4,5,61
8912,103,5251,1,9,1,2,8,4,444,5,4,61
8913,103,5251,1,9,1,2,8,3,282,6,3,61
8914,103,5251,1,9,1,2,8,1,138,7,2,61
8915,103,5251,1,9,1,2,8,2,258,8,1,61
9405,103,5009,0,1,1,8,3,1,471,1,7,62
9406,103,5009,0,1,1,8,3,2,894,2,6,62
9407,103,5009,0,1,1,8,3,1,915,3,5,62
9408,103,5009,0,1,1,8,3,4,620,4,4,62
9409,103,5009,0,1,1,8,3,3,537,5,3,62
9410,103,5009,0,1,1,8,3,4,273,6,2,62
9411,103,5009,0,1,1,8,3,2,381,7,1,62
9965,103,7647,1,9,9,8,4,1,213,1,10,63
9966,103,7647,1,9,9,8,4,2,983,2,9,63
9967,103,7647,1,9,9,8,4,1,743,3,8,63
9968,103,7647,1,9,9,8,4,2,567,4,7,63
9969,103,7647,1,9,9,8,4,1,2009,5,6,63
9970,103,7647,1,9,9,8,4,3,302,6,5,63
9971,103,7647,1,9,9,8,4,2,548,7,4,63
9972,103,7647,1,9,9,8,4,1,242,8,3,63
9973,103,7647,1,9,9,8,4,3,690,9,2,63
9974,103,7647,1,9,9,8,4,1,26,10,1,63
12261,103,4614,1,9,9,8,3,1,647,1,6,64
12262,103,4614,1,9,9,8,3,2,1093,2,5,64
12263,103,4614,1,9,9,8,3,3,545,3,4,64
12264,103,4614,1,9,9,8,3,4,690,4,3,64
12265,103,4614,1,9,9,8,3,3,598,5,2,64
12266,103,4614,1,9,9,8,3,1,172,6,1,64
12737,103,5051,0,1,9,9,3,1,899,1,7,65
12738,103,5051,0,1,9,9,3,2,1748,2,6,65
12739,103,5051,0,1,9,9,3,4,460,3,5,65
12740,103,5051,0,1,9,9,3,3,474,4,4,65
12741,103,5051,0,1,9,9,3,4,355,5,3,65
12742,103,5051,0,1,9,9,3,3,223,6,2,65
12743,103,5051,0,1,9,9,3,1,23,7,1,65
13917,103,3931,1,5,1,7,2,1,219,1,5,66
13918,103,3931,1,5,1,7,2,2,987,2,4,66
13919,103,3931,1,5,1,7,2,1,1282,3,3,66
13920,103,3931,1,5,1,7,2,3,653,4,2,66
13921,103,3931,1,5,1,7,2,1,12,5,1,66
16050,103,4431,0,1,9,8,2,1,1459,1,5,67
16051,103,4431,0,1,9,8,2,2,408,2,4,67
16052,103,4431,0,1,9,8,2,1,668,3,3,67
16053,103,4431,0,1,9,8,2,2,573,4,2,67
16054,103,4431,0,1,9,8,2,4,595,5,1,67
16614,103,2407,0,5,9,8,2,1,406,1,4,68
16615,103,2407,0,5,9,8,2,2,414,2,3,68
16616,103,2407,0,5,9,8,2,1,585,3,2,68
16617,103,2407,0,5,9,8,2,2,422,4,1,68
18345,103,3068,1,5,1,7,3,1,209,1,6,69
18346,103,3068,1,5,1,7,3,2,507,2,5,69
18347,103,3068,1,5,1,7,3,1,547,3,4,69
18348,103,3068,1,5,1,7,3,2,393,4,3,69
18349,103,3068,1,5,1,7,3,3,374,5,2,69
18350,103,3068,1,5,1,7,3,1,357,6,1,69
21057,103,3208,1,9,1,8,4,1,166,1,6,70
21058,103,3208,1,9,1,8,4,2,569,2,5,70
21059,103,3208,1,9,1,8,4,1,541,3,4,70
21060,103,3208,1,9,1,8,4,3,594,4,3,70
21061,103,3208,1,9,1,8,4,4,399,5,2,70
21062,103,3208,1,9,1,8,4,3,201,6,1,70
21262,103,3220,1,9,5,2,7,1,182,1,6,71
21263,103,3220,1,9,5,2,7,2,514,2,5,71
21264,103,3220,1,9,5,2,7,1,327,3,4,71
21265,103,3220,1,9,5,2,7,3,475,4,3,71
21266,103,3220,1,9,5,2,7,4,655,5,2,71
21267,103,3220,1,9,5,2,7,3,337,6,1,71
21380,103,6587,0,9,9,8,2,1,815,1,9,72
21381,103,6587,0,9,9,8,2,2,444,2,8,72
21382,103,6587,0,9,9,8,2,1,1119,3,7,72
21383,103,6587,0,9,9,8,2,4,229,4,6,72
21384,103,6587,0,9,9,8,2,1,986,5,5,72
21385,103,6587,0,9,9,8,2,4,391,6,4,72
21386,103,6587,0,9,9,8,2,3,601,7,3,72
21387,103,6587,0,9,9,8,2,4,299,8,2,72
21388,103,6587,0,9,9,8,2,2,142,9,1,72
21517,103,5299,0,1,9,9,4,2,332,1,9,73
21518,103,5299,0,1,9,9,4,1,447,2,8,73
21519,103,5299,0,1,9,9,4,2,877,3,7,73
21520,103,5299,0,1,9,9,4,4,446,4,6,73
21521,103,5299,0,1,9,9,4,2,134,5,5,73
21522,103,5299,0,1,9,9,4,4,99,6,4,73
21523,103,5299,0,1,9,9,4,3,1312,7,3,73
21524,103,5299,0,1,9,9,4,4,204,8,2,73
21525,103,5299,0,1,9,9,4,2,324,9,1,73
21611,103,4715,0,1,1,4,6,1,484,1,5,74
21612,103,4715,0,1,1,4,6,2,1889,2,4,74
21613,103,4715,0,1,1,4,6,1,768,3,3,74
21614,103,4715,0,1,1,4,6,4,418,4,2,74
21615,103,4715,0,1,1,4,6,3,290,5,1,74
21655,103,6645,1,9,1,7,2,2,449,1,8,75
21656,103,6645,1,9,1,7,2,1,856,2,7,75
21657,103,6645,1,9,1,7,2,2,1912,3,6,75
21658,103,6645,1,9,1,7,2,1,1000,4,5,75
21659,103,6645,1,9,1,7,2,3,452,5,4,75
21660,103,6645,1,9,1,7,2,4,340,6,3,75
21661,103,6645,1,9,1,7,2,3,227,7,2,75
21662,103,6645,1,9,1,7,2,1,194,8,1,75
21708,103,2385,1,1,9,4,6,1,356,1,3,76
21709,103,2385,1,1,9,4,6,2,1200,2,2,76
21710,103,2385,1,1,9,4,6,1,295,3,1,76
22140,103,3029,0,1,9,7,4,1,1019,1,3,77
22141,103,3029,0,1,9,7,4,2,867,2,2,77
22142,103,3029,0,1,9,7,4,4,591,3,1,77
22433,103,3029,0,9,9,6,2,1,708,1,4,78
22434,103,3029,0,9,9,6,2,2,391,2,3,78
22435,103,3029,0,9,9,6,2,1,460,3,2,78
22436,103,3029,0,9,9,6,2,2,961,4,1,78
22491,103,2616,1,9,1,3,7,1,379,1,3,79
22492,103,2616,1,9,1,3,7,2,793,2,2,79
22493,103,2616,1,9,1,3,7,1,954,3,1,79
22594,103,4356,1,9,1,4,7,1,1347,1,5,80
22595,103,4356,1,9,1,4,7,2,587,2,4,80
22596,103,4356,1,9,1,4,7,1,988,3,3,80
22597,103,4356,1,9,1,4,7,2,324,4,2,80
22598,103,4356,1,9,1,4,7,1,363,5,1,80
22646,103,3554,0,1,9,6,4,1,857,1,6,81
22647,103,3554,0,1,9,6,4,2,632,2,5,81
22648,103,3554,0,1,9,6,4,1,305,3,4,81
22649,103,3554,0,1,9,6,4,2,612,4,3,81
22650,103,3554,0,1,9,6,4,4,300,5,2,81
22651,103,3554,0,1,9,6,4,2,65,6,1,81
22782,103,2047,0,1,9,7,2,2,675,1,3,82
22783,103,2047,0,1,9,7,2,1,308,2,2,82
22784,103,2047,0,1,9,7,2,2,501,3,1,82
22801,103,2080,0,9,9,6,3,1,146,1,4,83
22802,103,2080,0,9,9,6,3,2,537,2,3,83
22803,103,2080,0,9,9,6,3,1,549,3,2,83
22804,103,2080,0,9,9,6,3,2,373,4,1,83
22844,103,5906,0,9,5,5,7,1,1415,1,5,84
22845,103,5906,0,9,5,5,7,2,2096,2,4,84
22846,103,5906,0,9,5,5,7,1,1045,3,3,84
22847,103,5906,0,9,5,5,7,2,400,4,2,84
22848,103,5906,0,9,5,5,7,3,56,5,1,84
22888,103,4447,1,1,1,4,7,1,301,1,7,85
22889,103,4447,1,1,1,4,7,2,596,2,6,85
22890,103,4447,1,1,1,4,7,1,469,3,5,85
22891,103,4447,1,1,1,4,7,3,1394,4,4,85
22892,103,4447,1,1,1,4,7,4,546,5,3,85
22893,103,4447,1,1,1,4,7,3,77,6,2,85
22894,103,4447,1,1,1,4,7,1,90,7,1,85
22991,103,3413,1,9,5,6,2,1,603,1,3,86
22992,103,3413,1,9,5,6,2,2,1584,2,2,86
22993,103,3413,1,9,5,6,2,1,661,3,1,86
23031,103,2576,1,9,1,2,6,1,567,1,3,87
23032,103,2576,1,9,1,2,6,2,791,2,2,87
23033,103,2576,1,9,1,2,6,1,730,3,1,87
23098,103,3988,0,1,1,2,8,1,1603,1,4,88
23099,103,3988,0,1,1,2,8,2,743,2,3,88
23100,103,3988,0,1,1,2,8,1,795,3,2,88
23101,103,3988,0,1,1,2,8,2,238,4,1,88
23147,103,1984,0,1,1,8,3,1,959,1,2,89
23148,103,1984,0,1,1,8,3,2,611,2,1,89
23256,103,1544,1,9,1,4,8,1,403,1,3,90
23257,103,1544,1,9,1,4,8,2,483,2,2,90
23258,103,1544,1,9,1,4,8,1,213,3,1,90
23487,103,6129,0,1,1,3,6,1,269,1,8,91
23488,103,6129,0,1,1,3,6,2,1030,2,7,91
23489,103,6129,0,1,1,3,6,1,1251,3,6,91
23490,103,6129,0,1,1,3,6,2,986,4,5,91
23491,103,6129,0,1,1,3,6,4,560,5,4,91
23492,103,6129,0,1,1,3,6,3,661,6,3,91
23493,103,6129,0,1,1,3,6,4,87,7,2,91
23494,103,6129,0,1,1,3,6,2,214,8,1,91
23657,103,2336,0,1,9,6,4,1,239,1,4,92
23658,103,2336,0,1,9,6,4,2,680,2,3,92
23659,103,2336,0,1,9,6,4,1,521,3,2,92
23660,103,2336,0,1,9,6,4,2,372,4,1,92
23717,103,3137,0,9,9,3,9,1,1946,1,2,93
23718,103,3137,0,9,9,3,9,2,717,2,1,93
23763,103,2016,0,1,9,7,4,1,337,1,4,94
23764,103,2016,0,1,9,7,4,2,445,2,3,94
23765,103,2016,0,1,9,7,4,1,500,3,2,94
23766,103,2016,0,1,9,7,4,2,236,4,1,94
23808,103,1621,1,9,5,7,2,1,507,1,3,95
23809,103,1621,1,9,5,7,2,2,549,2,2,95
23810,103,1621,1,9,5,7,2,1,152,3,1,95
23923,103,1561,0,1,1,8,3,1,660,1,2,96
23924,103,1561,0,1,1,8,3,2,542,2,1,96
1,104,2025,0,4,9,9,4,2,418,1,3,1
2,104,2025,0,4,9,9,4,1,400,2,2,1
3,104,2025,0,4,9,9,4,2,717,3,1,1
94,104,3629,0,3,7,3,8,1,427,1,6,2
95,104,3629,0,3,7,3,8,2,941,2,5,2
96,104,3629,0,3,7,3,8,4,183,3,4,2
97,104,3629,0,3,7,3,8,3,262,4,3,2
98,104,3629,0,3,7,3,8,1,448,5,2,2
99,104,3629,0,3,7,3,8,2,569,6,1,2
282,104,4053,1,9,3,3,7,2,386,1,6,3
283,104,4053,1,9,3,3,7,4,112,2,5,3
284,104,4053,1,9,3,3,7,3,205,3,4,3
285,104,4053,1,9,3,3,7,1,901,4,3,3
286,104,4053,1,9,3,3,7,2,684,5,2,3
287,104,4053,1,9,3,3,7,1,1073,6,1,3
504,104,2729,1,8,9,6,4,1,294,1,5,4
505,104,2729,1,8,9,6,4,3,138,2,4,4
506,104,2729,1,8,9,6,4,4,278,3,3,4
507,104,2729,1,8,9,6,4,2,590,4,2,4
508,104,2729,1,8,9,6,4,1,897,5,1,4
657,104,1867,1,2,5,6,4,1,745,1,4,5
658,104,1867,1,2,5,6,4,2,349,2,3,5
659,104,1867,1,2,5,6,4,4,193,3,2,5
660,104,1867,1,2,5,6,4,2,174,4,1,5
809,104,2701,1,9,9,7,3,1,577,1,5,6
810,104,2701,1,9,9,7,3,3,264,2,4,6
811,104,2701,1,9,9,7,3,4,171,3,3,6
812,104,2701,1,9,9,7,3,2,223,4,2,6
813,104,2701,1,9,9,7,3,1,873,5,1,6
878,104,1773,1,7,5,8,4,1,442,1,5,7
879,104,1773,1,7,5,8,4,2,256,2,4,7
880,104,1773,1,7,5,8,4,4,100,3,3,7
881,104,1773,1,7,5,8,4,3,121,4,2,7
882,104,1773,1,7,5,8,4,1,319,5,1,7
1142,104,2437,0,3,3,3,9,1,143,1,4,8
1143,104,2437,0,3,3,3,9,2,1187,2,3,8
1144,104,2437,0,3,3,3,9,1,345,3,2,8
1145,104,2437,0,3,3,3,9,2,284,4,1,8
1194,104,4891,0,6,7,3,8,2,1256,1,7,9
1195,104,4891,0,6,7,3,8,1,615,2,6,9
1196,104,4891,0,6,7,3,8,2,374,3,5,9
1197,104,4891,0,6,7,3,8,4,231,4,4,9
1198,104,4891,0,6,7,3,8,3,118,5,3,9
1199,104,4891,0,6,7,3,8,1,267,6,2,9
1200,104,4891,0,6,7,3,8,2,445,7,1,9
1387,104,6896,0,6,9,3,6,2,436,1,5,10
1388,104,6896,0,6,9,3,6,4,140,2,4,10
1389,104,6896,0,6,9,3,6,3,178,3,3,10
1390,104,6896,0,6,9,3,6,1,376,4,2,10
1391,104,6896,0,6,9,3,6,2,4714,5,1,10
1598,104,2200,0,1,3,7,3,2,270,1,6,11
1599,104,2200,0,1,3,7,3,1,477,2,5,11
1600,104,2200,0,1,3,7,3,3,106,3,4,11
1601,104,2200,0,1,3,7,3,4,132,4,3,11
1602,104,2200,0,1,3,7,3,2,450,5,2,11
1603,104,2200,0,1,3,7,3,4,56,6,1,11
1640,104,1454,1,9,3,7,3,1,295,1,5,12
1641,104,1454,1,9,3,7,3,3,138,2,4,12
1642,104,1454,1,9,3,7,3,4,145,3,3,12
1643,104,1454,1,9,3,7,3,2,280,4,2,12
1644,104,1454,1,9,3,7,3,1,97,5,1,12
1957,104,4803,0,3,3,3,8,1,209,1,6,13
1958,104,4803,0,3,3,3,8,3,87,2,5,13
1959,104,4803,0,3,3,3,8,2,1637,3,4,13
1960,104,4803,0,3,3,3,8,1,713,4,3,13
1961,104,4803,0,3,3,3,8,2,651,5,2,13
1962,104,4803,0,3,3,3,8,4,307,6,1,13
2010,104,2691,0,2,9,7,2,2,184,1,6,14
2011,104,2691,0,2,9,7,2,4,100,2,5,14
2012,104,2691,0,2,9,7,2,3,104,3,4,14
2013,104,2691,0,2,9,7,2,1,551,4,3,14
2014,104,2691,0,2,9,7,2,2,1046,5,2,14
2015,104,2691,0,2,9,7,2,1,88,6,1,14
2167,104,1579,1,9,5,9,4,1,381,1,5,15
2168,104,1579,1,9,5,9,4,3,131,2,4,15
2169,104,1579,1,9,5,9,4,4,158,3,3,15
2170,104,1579,1,9,5,9,4,2,407,4,2,15
2171,104,1579,1,9,5,9,4,1,5,5,1,15
2228,104,1607,0,7,3,2,7,1,550,1,2,16
2229,104,1607,0,7,3,2,7,2,635,2,1,16
2373,104,876,1,9,7,9,2,1,373,1,2,17
2374,104,876,1,9,7,9,2,2,192,2,1,17
2642,104,3500,1,6,1,3,9,1,477,1,6,18
2643,104,3500,1,6,1,3,9,2,708,2,5,18
2644,104,3500,1,6,1,3,9,3,267,3,4,18
2645,104,3500,1,6,1,3,9,1,230,4,3,18
2646,104,3500,1,6,1,3,9,2,704,5,2,18
2647,104,3500,1,6,1,3,9,1,377,6,1,18
2751,104,1357,0,3,8,3,9,1,341,1,3,19
2752,104,1357,0,3,8,3,9,2,318,2,2,19
2753,104,1357,0,3,8,3,9,1,311,3,1,19
2979,104,5627,0,9,2,4,7,1,556,1,6,20
2980,104,5627,0,9,2,4,7,3,188,2,5,20
2981,104,5627,0,9,2,4,7,4,277,3,4,20
2982,104,5627,0,9,2,4,7,2,1245,4,3,20
2983,104,5627,0,9,2,4,7,1,1495,5,2,20
2984,104,5627,0,9,2,4,7,2,1119,6,1,20
3058,104,1065,0,9,3,2,9,2,489,1,2,21
3059,104,1065,0,9,3,2,9,1,196,2,1,21
3110,104,4778,1,5,9,7,4,2,247,1,10,22
3111,104,4778,1,5,9,7,4,4,114,2,9,22
3112,104,4778,1,5,9,7,4,1,464,3,8,22
3113,104,4778,1,5,9,7,4,3,170,4,7,22
3114,104,4778,1,5,9,7,4,2,587,5,6,22
3115,104,4778,1,5,9,7,4,4,66,6,5,22
3116,104,4778,1,5,9,7,4,3,90,7,4,22
3117,104,4778,1,5,9,7,4,1,846,8,3,22
3118,104,4778,1,5,9,7,4,4,571,9,2,22
3119,104,4778,1,5,9,7,4,3,393,10,1,22
3194,104,3501,0,3,5,3,9,1,371,1,4,23
3195,104,3501,0,3,5,3,9,2,1717,2,3,23
3196,104,3501,0,3,5,3,9,1,424,3,2,23
3197,104,3501,0,3,5,3,9,3,2,4,1,23
3437,104,1385,1,3,5,9,2,2,170,1,3,24
3438,104,1385,1,3,5,9,2,1,516,2,2,24
3439,104,1385,1,3,5,9,2,2,209,3,1,24
3569,104,2886,0,7,3,4,9,1,501,1,4,25
3570,104,2886,0,7,3,4,9,3,160,2,3,25
3571,104,2886,0,7,3,4,9,4,144,3,2,25
3572,104,2886,0,7,3,4,9,2,1559,4,1,25
3671,104,3566,0,5,9,7,3,2,62,1,7,26
3672,104,3566,0,5,9,7,3,3,185,2,6,26
3673,104,3566,0,5,9,7,3,1,424,3,5,26
3674,104,3566,0,5,9,7,3,2,1207,4,4,26
3675,104,3566,0,5,9,7,3,4,294,5,3,26
3676,104,3566,0,5,9,7,3,3,347,6,2,26
3677,104,3566,0,5,9,7,3,1,3,7,1,26
3734,104,2101,0,2,9,6,3,1,152,1,5,27
3735,104,2101,0,2,9,6,3,3,159,2,4,27
3736,104,2101,0,2,9,6,3,4,201,3,3,27
3737,104,2101,0,2,9,6,3,2,405,4,2,27
3738,104,2101,0,2,9,6,3,1,644,5,1,27
3821,104,1822,1,8,8,9,2,1,280,1,5,28
3822,104,1822,1,8,8,9,2,2,460,2,4,28
3823,104,1822,1,8,8,9,2,4,199,3,3,28
3824,104,1822,1,8,8,9,2,3,254,4,2,28
3825,104,1822,1,8,8,9,2,1,156,5,1,28
3854,104,1546,0,3,3,3,8,1,133,1,4,29
3855,104,1546,0,3,3,3,8,2,374,2,3,29
3856,104,1546,0,3,3,3,8,1,328,3,2,29
3857,104,1546,0,3,3,3,8,2,247,4,1,29
3953,104,1547,0,7,9,4,6,1,130,1,5,30
3954,104,1547,0,7,9,4,6,3,123,2,4,30
3955,104,1547,0,7,9,4,6,4,256,3,3,30
3956,104,1547,0,7,9,4,6,2,389,4,2,30
3957,104,1547,0,7,9,4,6,1,151,5,1,30
4099,104,2143,0,5,9,6,4,2,462,1,5,31
4100,104,2143,0,5,9,6,4,4,129,2,4,31
4101,104,2143,0,5,9,6,4,3,165,3,3,31
4102,104,2143,0,5,9,6,4,1,653,4,2,31
4103,104,2143,0,5,9,6,4,2,234,5,1,31
4202,104,2085,1,9,3,7,4,1,344,1,3,32
4203,104,2085,1,9,3,7,4,2,1330,2,2,32
4204,104,2085,1,9,3,7,4,1,47,3,1,32
4302,104,1436,1,9,6,6,3,1,595,1,3,33
4303,104,1436,1,9,6,6,3,2,414,2,2,33
4304,104,1436,1,9,6,6,3,4,27,3,1,33
4416,104,1191,0,9,9,4,9,2,214,1,2,34
4417,104,1191,0,9,9,4,9,1,556,2,1,34
4513,104,2454,0,9,8,4,6,1,321,1,6,35
4514,104,2454,0,9,8,4,6,2,276,2,5,35
4515,104,2454,0,9,8,4,6,4,172,3,4,35
4516,104,2454,0,9,8,4,6,3,281,4,3,35
4517,104,2454,0,9,8,4,6,1,323,5,2,35
4518,104,2454,0,9,8,4,6,2,587,6,1,35
4731,104,2163,1,9,2,4,6,4,180,1,5,36
4732,104,2163,1,9,2,4,6,3,214,2,4,36
4733,104,2163,1,9,2,4,6,1,103,3,3,36
4734,104,2163,1,9,2,4,6,2,539,4,2,36
4735,104,2163,1,9,2,4,6,1,341,5,1,36
4787,104,1619,1,5,2,4,6,1,114,1,5,37
4788,104,1619,1,5,2,4,6,3,98,2,4,37
4789,104,1619,1,5,2,4,6,4,167,3,3,37
4790,104,1619,1,5,2,4,6,2,300,4,2,37
4791,104,1619,1,5,2,4,6,1,449,5,1,37
4817,104,1910,0,5,3,2,9,4,140,1,4,38
4818,104,1910,0,5,3,2,9,2,359,2,3,38
4819,104,1910,0,5,3,2,9,1,279,3,2,38
4820,104,1910,0,5,3,2,9,2,559,4,1,38
5000,104,2134,1,5,7,7,4,1,202,1,6,39
5001,104,2134,1,5,7,7,4,3,157,2,5,39
5002,104,2134,1,5,7,7,4,4,200,3,4,39
5003,104,2134,1,5,7,7,4,2,235,4,3,39
5004,104,2134,1,5,7,7,4,1,593,5,2,39
5005,104,2134,1,5,7,7,4,2,158,6,1,39
5096,104,4167,0,5,9,6,3,1,326,1,6,40
5097,104,4167,0,5,9,6,3,2,600,2,5,40
5098,104,4167,0,5,9,6,3,4,201,3,4,40
5099,104,4167,0,5,9,6,3,3,512,4,3,40
5100,104,4167,0,5,9,6,3,1,432,5,2,40
5101,104,4167,0,5,9,6,3,2,1424,6,1,40
5156,104,4798,0,5,7,7,2,3,208,1,7,41
5157,104,4798,0,5,7,7,2,1,302,2,6,41
5158,104,4798,0,5,7,7,2,2,722,3,5,41
5159,104,4798,0,5,7,7,2,3,124,4,4,41
5160,104,4798,0,5,7,7,2,4,881,5,3,41
5161,104,4798,0,5,7,7,2,3,351,6,2,41
5162,104,4798,0,5,7,7,2,2,671,7,1,41
5290,104,2573,1,8,9,6,2,1,88,1,6,42
5291,104,2573,1,8,9,6,2,3,329,2,5,42
5292,104,2573,1,8,9,6,2,4,318,3,4,42
5293,104,2573,1,8,9,6,2,2,248,4,3,42
5294,104,2573,1,8,9,6,2,1,655,5,2,42
5295,104,2573,1,8,9,6,2,2,298,6,1,42
5425,104,1596,1,2,9,7,3,3,315,1,3,43
5426,104,1596,1,2,9,7,3,1,547,2,2,43
5427,104,1596,1,2,9,7,3,2,262,3,1,43
5469,104,2138,0,9,3,4,7,1,360,1,5,44
5470,104,2138,0,9,3,4,7,2,599,2,4,44
5471,104,2138,0,9,3,4,7,1,215,3,3,44
5472,104,2138,0,9,3,4,7,3,164,4,2,44
5473,104,2138,0,9,3,4,7,1,149,5,1,44
5507,104,3919,0,7,6,2,8,2,225,1,8,45
5508,104,3919,0,7,6,2,8,4,242,2,7,45
5509,104,3919,0,7,6,2,8,3,309,3,6,45
5510,104,3919,0,7,6,2,8,1,361,4,5,45
5511,104,3919,0,7,6,2,8,2,631,5,4,45
5512,104,3919,0,7,6,2,8,1,533,6,3,45
5513,104,3919,0,7,6,2,8,2,292,7,2,45
5514,104,3919,0,7,6,2,8,1,430,8,1,45
5659,104,2824,0,3,3,3,7,1,193,1,4,46
5660,104,2824,0,3,3,3,7,2,1206,2,3,46
5661,104,2824,0,3,3,3,7,1,348,3,2,46
5662,104,2824,0,3,3,3,7,2,467,4,1,46
5797,104,2576,0,5,3,2,8,2,950,1,3,47
5798,104,2576,0,5,3,2,8,1,385,2,2,47
5799,104,2576,0,5,3,2,8,2,723,3,1,47
5906,104,2706,0,7,6,4,8,2,408,1,4,48
5907,104,2706,0,7,6,4,8,1,647,2,3,48
5908,104,2706,0,7,6,4,8,3,115,3,2,48
5909,104,2706,0,7,6,4,8,2,134,4,1,48
6097,104,4603,1,2,9,7,3,2,246,1,5,49
6098,104,4603,1,2,9,7,3,1,1380,2,4,49
6099,104,4603,1,2,9,7,3,2,805,3,3,49
6100,104,4603,1,2,9,7,3,1,753,4,2,49
6101,104,4603,1,2,9,7,3,2,624,5,1,49
6243,104,3051,0,3,9,7,2,1,187,1,7,50
6244,104,3051,0,3,9,7,2,3,236,2,6,50
6245,104,3051,0,3,9,7,2,1,300,3,5,50
6246,104,3051,0,3,9,7,2,2,466,4,4,50
6247,104,3051,0,3,9,7,2,4,138,5,3,50
6248,104,3051,0,3,9,7,2,3,280,6,2,50
6249,104,3051,0,3,9,7,2,1,613,7,1,50
6532,104,940,1,9,9,6,4,1,423,1,3,51
6533,104,940,1,9,9,6,4,3,102,2,2,51
6534,104,940,1,9,9,6,4,4,65,3,1,51
6562,104,1732,1,8,4,6,2,1,271,1,4,52
6563,104,1732,1,8,4,6,2,2,404,2,3,52
6564,104,1732,1,8,4,6,2,4,130,3,2,52
6565,104,1732,1,8,4,6,2,1,502,4,1,52
6624,104,5887,1,5,3,4,7,1,515,1,6,53
6625,104,5887,1,5,3,4,7,2,633,2,5,53
6626,104,5887,1,5,3,4,7,4,207,3,4,53
6627,104,5887,1,5,3,4,7,3,551,4,3,53
6628,104,5887,1,5,3,4,7,1,430,5,2,53
6629,104,5887,1,5,3,4,7,2,2870,6,1,53
6723,104,1654,0,5,8,4,7,1,227,1,4,54
6724,104,1654,0,5,8,4,7,2,386,2,3,54
6725,104,1654,0,5,8,4,7,1,349,3,2,54
6726,104,1654,0,5,8,4,7,2,251,4,1,54
6954,104,790,0,5,8,2,9,1,525,1,1,55
7086,104,1691,0,5,3,2,7,1,454,1,2,56
7087,104,1691,0,5,3,2,7,2,898,2,1,56
7469,104,1501,1,6,8,8,2,1,589,1,2,57
7470,104,1501,1,6,8,8,2,2,244,2,1,57
7570,104,868,0,9,3,3,8,1,185,1,2,58
7571,104,868,0,9,3,3,8,2,351,2,1,58
7630,104,4213,0,7,6,4,8,1,499,1,7,59
7631,104,4213,0,7,6,4,8,2,510,2,6,59
7632,104,4213,0,7,6,4,8,4,140,3,5,59
7633,104,4213,0,7,6,4,8,3,333,4,4,59
7634,104,4213,0,7,6,4,8,1,457,5,3,59
7635,104,4213,0,7,6,4,8,2,1459,6,2,59
7636,104,4213,0,7,6,4,8,1,11,7,1,59
7709,104,2838,1,6,4,8,2,1,677,1,3,60
7710,104,2838,1,6,4,8,2,2,803,2,2,60
7711,104,2838,1,6,4,8,2,1,871,3,1,60
8916,104,2340,0,3,3,4,7,2,615,1,3,61
8917,104,2340,0,3,3,4,7,1,958,2,2,61
8918,104,2340,0,3,3,4,7,4,191,3,1,61
11690,104,1902,1,8,5,9,4,1,197,1,6,62
11691,104,1902,1,8,5,9,4,2,546,2,5,62
11692,104,1902,1,8,5,9,4,1,102,3,4,62
11693,104,1902,1,8,5,9,4,3,166,4,3,62
11694,104,1902,1,8,5,9,4,4,169,5,2,62
11695,104,1902,1,8,5,9,4,1,116,6,1,62
12744,104,3564,1,9,8,2,6,1,521,1,6,63
12745,104,3564,1,9,8,2,6,3,154,2,5,63
12746,104,3564,1,9,8,2,6,4,227,3,4,63
12747,104,3564,1,9,8,2,6,2,417,4,3,63
12748,104,3564,1,9,8,2,6,1,568,5,2,63
12749,104,3564,1,9,8,2,6,2,1056,6,1,63
14978,104,2114,1,6,9,8,4,1,334,1,3,64
14979,104,2114,1,6,9,8,4,2,570,2,2,64
14980,104,2114,1,6,9,8,4,1,764,3,1,64
16055,104,2172,0,1,7,9,4,1,1322,1,2,65
16056,104,2172,0,1,7,9,4,2,501,2,1,65
17775,104,4972,0,9,8,4,7,1,90,1,7,66
17776,104,4972,0,9,8,4,7,2,451,2,6,66
17777,104,4972,0,9,8,4,7,1,1613,3,5,66
17778,104,4972,0,9,8,4,7,3,177,4,4,66
17779,104,4972,0,9,8,4,7,4,243,5,3,66
17780,104,4972,0,9,8,4,7,2,623,6,2,66
17781,104,4972,0,9,8,4,7,1,1055,7,1,66
18875,104,2490,0,5,5,9,2,1,674,1,5,67
18876,104,2490,0,5,5,9,2,2,713,2,4,67
18877,104,2490,0,5,5,9,2,4,234,3,3,67
18878,104,2490,0,5,5,9,2,3,296,4,2,67
18879,104,2490,0,5,5,9,2,1,113,5,1,67
21168,104,1230,0,5,9,2,6,1,353,1,2,68
21169,104,1230,0,5,9,2,6,2,549,2,1,68
21204,104,2306,1,3,5,7,2,1,299,1,4,69
21205,104,2306,1,3,5,7,2,2,492,2,3,69
21206,104,2306,1,3,5,7,2,1,618,3,2,69
21207,104,2306,1,3,5,7,2,3,441,4,1,69
21268,104,3930,1,5,3,9,4,1,371,1,5,70
21269,104,3930,1,5,3,9,4,2,573,2,4,70
21270,104,3930,1,5,3,9,4,1,326,3,3,70
21271,104,3930,1,5,3,9,4,2,1747,4,2,70
21272,104,3930,1,5,3,9,4,1,284,5,1,70
21308,104,6451,0,8,9,6,3,1,377,1,6,71
21309,104,6451,0,8,9,6,3,2,678,2,5,71
21310,104,6451,0,8,9,6,3,4,141,3,4,71
21311,104,6451,0,8,9,6,3,3,261,4,3,71
21312,104,6451,0,8,9,6,3,1,1324,5,2,71
21313,104,6451,0,8,9,6,3,2,2893,6,1,71
21389,104,3503,0,7,9,4,6,2,390,1,5,72
21390,104,3503,0,7,9,4,6,1,668,2,4,72
21391,104,3503,0,7,9,4,6,3,120,3,3,72
21392,104,3503,0,7,9,4,6,4,832,4,2,72
21393,104,3503,0,7,9,4,6,3,492,5,1,72
21448,104,2368,0,3,8,3,6,2,677,1,5,73
21449,104,2368,0,3,8,3,6,1,357,2,4,73
21450,104,2368,0,3,8,3,6,3,98,3,3,73
21451,104,2368,0,3,8,3,6,4,263,4,2,73
21452,104,2368,0,3,8,3,6,2,303,5,1,73
21936,104,1393,0,3,9,7,4,2,347,1,2,74
21937,104,1393,0,3,9,7,4,1,708,2,1,74
22183,104,6170,1,8,7,6,4,2,335,1,11,75
22184,104,6170,1,8,7,6,4,1,444,2,10,75
22185,104,6170,1,8,7,6,4,3,134,3,9,75
22186,104,6170,1,8,7,6,4,4,522,4,8,75
22187,104,6170,1,8,7,6,4,3,849,5,7,75
22188,104,6170,1,8,7,6,4,4,698,6,6,75
22189,104,6170,1,8,7,6,4,3,1074,7,5,75
22190,104,6170,1,8,7,6,4,4,216,8,4,75
22191,104,6170,1,8,7,6,4,1,191,9,3,75
22192,104,6170,1,8,7,6,4,3,144,10,2,75
22193,104,6170,1,8,7,6,4,1,138,11,1,75
22245,104,5128,0,4,2,2,7,1,375,1,11,76
22246,104,5128,0,4,2,2,7,2,405,2,10,76
22247,104,5128,0,4,2,2,7,4,662,3,9,76
22248,104,5128,0,4,2,2,7,2,472,4,8,76
22249,104,5128,0,4,2,2,7,4,235,5,7,76
22250,104,5128,0,4,2,2,7,2,209,6,6,76
22251,104,5128,0,4,2,2,7,1,208,7,5,76
22252,104,5128,0,4,2,2,7,3,590,8,4,76
22253,104,5128,0,4,2,2,7,4,276,9,3,76
22254,104,5128,0,4,2,2,7,3,340,10,2,76
22255,104,5128,0,4,2,2,7,1,136,11,1,76
22301,104,1816,0,9,9,3,7,1,450,1,4,77
22302,104,1816,0,9,9,3,7,3,147,2,3,77
22303,104,1816,0,9,9,3,7,4,198,3,2,77
22304,104,1816,0,9,9,3,7,2,604,4,1,77
22396,104,2610,1,2,4,6,2,2,159,1,6,78
22397,104,2610,1,2,4,6,2,1,441,2,5,78
22398,104,2610,1,2,4,6,2,3,186,3,4,78
22399,104,2610,1,2,4,6,2,4,146,4,3,78
22400,104,2610,1,2,4,6,2,1,437,5,2,78
22401,104,2610,1,2,4,6,2,2,598,6,1,78
22494,104,4121,0,1,4,9,2,2,124,1,7,79
22495,104,4121,0,1,4,9,2,1,733,2,6,79
22496,104,4121,0,1,4,9,2,2,541,3,5,79
22497,104,4121,0,1,4,9,2,4,178,4,4,79
22498,104,4121,0,1,4,9,2,3,397,5,3,79
22499,104,4121,0,1,4,9,2,1,797,6,2,79
22500,104,4121,0,1,4,9,2,2,560,7,1,79
22732,104,3030,1,8,7,7,2,1,670,1,5,80
22733,104,3030,1,8,7,7,2,3,125,2,4,80
22734,104,3030,1,8,7,7,2,4,181,3,3,80
22735,104,3030,1,8,7,7,2,2,661,4,2,80
22736,104,3030,1,8,7,7,2,1,855,5,1,80
22849,104,2212,0,5,3,4,9,1,581,1,2,81
22850,104,2212,0,5,3,4,9,2,1269,2,1,81
22895,104,2821,0,1,7,9,2,1,458,1,6,82
22896,104,2821,0,1,7,9,2,2,354,2,5,82
22897,104,2821,0,1,7,9,2,4,172,3,4,82
22898,104,2821,0,1,7,9,2,3,246,4,3,82
22899,104,2821,0,1,7,9,2,1,785,5,2,82
22900,104,2821,0,1,7,9,2,2,173,6,1,82
22942,104,2264,1,9,1,2,7,1,388,1,5,83
22943,104,2264,1,9,1,2,7,3,136,2,4,83
22944,104,2264,1,9,1,2,7,4,199,3,3,83
22945,104,2264,1,9,1,2,7,2,513,4,2,83
22946,104,2264,1,9,1,2,7,1,368,5,1,83
22994,104,3850,0,3,2,3,7,1,343,1,6,84
22995,104,3850,0,3,2,3,7,2,629,2,5,84
22996,104,3850,0,3,2,3,7,4,153,3,4,84
22997,104,3850,0,3,2,3,7,3,584,4,3,84
22998,104,3850,0,3,2,3,7,4,364,5,2,84
22999,104,3850,0,3,2,3,7,2,1015,6,1,84
23102,104,2678,1,6,3,8,4,1,462,1,5,85
23103,104,2678,1,6,3,8,4,2,639,2,4,85
23104,104,2678,1,6,3,8,4,4,383,3,3,85
23105,104,2678,1,6,3,8,4,3,211,4,2,85
23106,104,2678,1,6,3,8,4,1,438,5,1,85
23149,104,3295,1,7,2,2,6,2,155,1,4,86
23150,104,3295,1,7,2,2,6,1,1143,2,3,86
23151,104,3295,1,7,2,2,6,2,1238,3,2,86
23152,104,3295,1,7,2,2,6,1,231,4,1,86
23204,104,1600,1,8,7,9,4,1,310,1,4,87
23205,104,1600,1,8,7,9,4,2,658,2,3,87
23206,104,1600,1,8,7,9,4,4,147,3,2,87
23207,104,1600,1,8,7,9,4,3,64,4,1,87
23259,104,2475,0,5,8,2,9,2,380,1,5,88
23260,104,2475,0,5,8,2,9,1,621,2,4,88
23261,104,2475,0,5,8,2,9,3,158,3,3,88
23262,104,2475,0,5,8,2,9,1,138,4,2,88
23263,104,2475,0,5,8,2,9,2,552,5,1,88
23323,104,1789,1,6,1,3,9,2,349,1,4,89
23324,104,1789,1,6,1,3,9,1,592,2,3,89
23325,104,1789,1,6,1,3,9,3,154,3,2,89
23326,104,1789,1,6,1,3,9,4,97,4,1,89
23420,104,3806,1,3,2,4,6,1,483,1,6,90
23421,104,3806,1,3,2,4,6,2,280,2,5,90
23422,104,3806,1,3,2,4,6,4,234,3,4,90
23423,104,3806,1,3,2,4,6,3,526,4,3,90
23424,104,3806,1,3,2,4,6,2,718,5,2,90
23425,104,3806,1,3,2,4,6,1,761,6,1,90
23495,104,3914,0,1,6,7,3,1,390,1,6,91
23496,104,3914,0,1,6,7,3,2,1657,2,5,91
23497,104,3914,0,1,6,7,3,1,794,3,4,91
23498,104,3914,0,1,6,7,3,3,194,4,3,91
23499,104,3914,0,1,6,7,3,4,177,5,2,91
23500,104,3914,0,1,6,7,3,2,73,6,1,91
23552,104,5389,1,8,9,6,4,1,453,1,9,92
23553,104,5389,1,8,9,6,4,2,669,2,8,92
23554,104,5389,1,8,9,6,4,4,273,3,7,92
23555,104,5389,1,8,9,6,4,2,700,4,6,92
23556,104,5389,1,8,9,6,4,1,641,5,5,92
23557,104,5389,1,8,9,6,4,2,746,6,4,92
23558,104,5389,1,8,9,6,4,3,275,7,3,92
23559,104,5389,1,8,9,6,4,1,659,8,2,92
23560,104,5389,1,8,9,6,4,3,70,9,1,92
23767,104,5206,1,9,9,6,2,1,307,1,8,93
23768,104,5206,1,9,9,6,2,2,344,2,7,93
23769,104,5206,1,9,9,6,2,1,269,3,6,93
23770,104,5206,1,9,9,6,2,3,173,4,5,93
23771,104,5206,1,9,9,6,2,4,255,5,4,93
23772,104,5206,1,9,9,6,2,1,233,6,3,93
23773,104,5206,1,9,9,6,2,3,772,7,2,93
23774,104,5206,1,9,9,6,2,1,1624,8,1,93
23942,104,6323,1,3,3,7,3,2,416,1,7,94
23943,104,6323,1,3,3,7,3,1,172,2,6,94
23944,104,6323,1,3,3,7,3,3,157,3,5,94
23945,104,6323,1,3,3,7,3,4,141,4,4,94
23946,104,6323,1,3,3,7,3,1,2619,5,3,94
23947,104,6323,1,3,3,7,3,2,1215,6,2,94
23948,104,6323,1,3,3,7,3,1,675,7,1,94
7737,105,4770,1,3,4,9,4,1,616,1,9,1
7738,105,4770,1,3,4,9,4,2,785,2,8,1
7739,105,4770,1,3,4,9,4,1,514,3,7,1
7740,105,4770,1,3,4,9,4,2,191,4,6,1
7741,105,4770,1,3,4,9,4,4,459,5,5,1
7742,105,4770,1,3,4,9,4,3,622,6,4,1
7743,105,4770,1,3,4,9,4,4,243,7,3,1
7744,105,4770,1,3,4,9,4,2,209,8,2,1
7745,105,4770,1,3,4,9,4,1,153,9,1,1
8061,105,5733,0,4,3,2,6,1,1749,1,7,2
8062,105,5733,0,4,3,2,6,3,1306,2,6,2
8063,105,5733,0,4,3,2,6,4,429,3,5,2
8064,105,5733,0,4,3,2,6,2,558,4,4,2
8065,105,5733,0,4,3,2,6,4,272,5,3,2
8066,105,5733,0,4,3,2,6,2,219,6,2,2
8067,105,5733,0,4,3,2,6,1,269,7,1,2
8356,105,5443,0,8,8,4,6,1,558,1,8,3
8357,105,5443,0,8,8,4,6,3,431,2,7,3
8358,105,5443,0,8,8,4,6,4,560,3,6,3
8359,105,5443,0,8,8,4,6,2,752,4,5,3
8360,105,5443,0,8,8,4,6,1,752,5,4,3
8361,105,5443,0,8,8,4,6,3,488,6,3,3
8362,105,5443,0,8,8,4,6,4,868,7,2,3
8363,105,5443,0,8,8,4,6,2,107,8,1,3
8407,105,5582,1,5,9,7,4,1,537,1,8,4
8408,105,5582,1,5,9,7,4,2,331,2,7,4
8409,105,5582,1,5,9,7,4,4,569,3,6,4
8410,105,5582,1,5,9,7,4,3,782,4,5,4
8411,105,5582,1,5,9,7,4,4,1348,5,4,4
8412,105,5582,1,5,9,7,4,1,710,6,3,4
8413,105,5582,1,5,9,7,4,2,292,7,2,4
8414,105,5582,1,5,9,7,4,1,3,8,1,4
8619,105,6895,1,2,4,9,2,1,595,1,12,5
8620,105,6895,1,2,4,9,2,3,181,2,11,5
8621,105,6895,1,2,4,9,2,4,143,3,10,5
8622,105,6895,1,2,4,9,2,2,390,4,9,5
8623,105,6895,1,2,4,9,2,1,831,5,8,5
8624,105,6895,1,2,4,9,2,3,488,6,7,5
8625,105,6895,1,2,4,9,2,1,288,7,6,5
8626,105,6895,1,2,4,9,2,2,583,8,5,5
8627,105,6895,1,2,4,9,2,1,1292,9,4,5
8628,105,6895,1,2,4,9,2,2,351,10,3,5
8629,105,6895,1,2,4,9,2,4,378,11,2,5
8630,105,6895,1,2,4,9,2,1,221,12,1,5
8665,105,5535,0,7,5,3,6,1,504,1,7,6
8666,105,5535,0,7,5,3,6,3,1520,2,6,6
8667,105,5535,0,7,5,3,6,4,634,3,5,6
8668,105,5535,0,7,5,3,6,2,618,4,4,6
8669,105,5535,0,7,5,3,6,4,670,5,3,6
8670,105,5535,0,7,5,3,6,2,594,6,2,6
8671,105,5535,0,7,5,3,6,1,98,7,1,6
8840,105,2946,0,8,5,3,9,1,363,1,4,7
8841,105,2946,0,8,5,3,9,3,923,2,3,7
8842,105,2946,0,8,5,3,9,4,649,3,2,7
8843,105,2946,0,8,5,3,9,2,448,4,1,7
8980,105,3243,0,8,5,4,9,1,488,1,6,8
8981,105,3243,0,8,5,4,9,2,366,2,5,8
8982,105,3243,0,8,5,4,9,1,293,3,4,8
8983,105,3243,0,8,5,4,9,3,835,4,3,8
8984,105,3243,0,8,5,4,9,4,281,5,2,8
8985,105,3243,0,8,5,4,9,2,382,6,1,8
9042,105,3987,0,6,5,3,7,1,420,1,8,9
9043,105,3987,0,6,5,3,7,3,686,2,7,9
9044,105,3987,0,6,5,3,7,1,251,3,6,9
9045,105,3987,0,6,5,3,7,2,176,4,5,9
9046,105,3987,0,6,5,3,7,4,1048,5,4,9
9047,105,3987,0,6,5,3,7,3,293,6,3,9
9048,105,3987,0,6,5,3,7,4,77,7,2,9
9049,105,3987,0,6,5,3,7,2,192,8,1,9
9092,105,5497,0,8,6,4,6,1,509,1,8,10
9093,105,5497,0,8,6,4,6,2,320,2,7,10
9094,105,5497,0,8,6,4,6,4,393,3,6,10
9095,105,5497,0,8,6,4,6,3,937,4,5,10
9096,105,5497,0,8,6,4,6,4,397,5,4,10
9097,105,5497,0,8,6,4,6,3,367,6,3,10
9098,105,5497,0,8,6,4,6,4,1274,7,2,10
9099,105,5497,0,8,6,4,6,2,429,8,1,10
9175,105,6836,1,6,4,8,2,1,362,1,8,11
9176,105,6836,1,6,4,8,2,3,440,2,7,11
9177,105,6836,1,6,4,8,2,1,874,3,6,11
9178,105,6836,1,6,4,8,2,2,970,4,5,11
9179,105,6836,1,6,4,8,2,4,1011,5,4,11
9180,105,6836,1,6,4,8,2,3,935,6,3,11
9181,105,6836,1,6,4,8,2,4,516,7,2,11
9182,105,6836,1,6,4,8,2,1,608,8,1,11
9522,105,9634,1,4,6,4,6,3,429,1,16,12
9523,105,9634,1,4,6,4,6,1,349,2,15,12
9524,105,9634,1,4,6,4,6,3,283,3,14,12
9525,105,9634,1,4,6,4,6,4,189,4,13,12
9526,105,9634,1,4,6,4,6,2,336,5,12,12
9527,105,9634,1,4,6,4,6,4,871,6,11,12
9528,105,9634,1,4,6,4,6,3,424,7,10,12
9529,105,9634,1,4,6,4,6,1,1786,8,9,12
9530,105,9634,1,4,6,4,6,3,654,9,8,12
9531,105,9634,1,4,6,4,6,4,333,10,7,12
9532,105,9634,1,4,6,4,6,1,299,11,6,12
9533,105,9634,1,4,6,4,6,2,478,12,5,12
9534,105,9634,1,4,6,4,6,1,399,13,4,12
9535,105,9634,1,4,6,4,6,3,184,14,3,12
9536,105,9634,1,4,6,4,6,1,307,15,2,12
9537,105,9634,1,4,6,4,6,2,274,16,1,12
9569,105,4096,0,9,3,4,9,1,359,1,8,13
9570,105,4096,0,9,3,4,9,2,258,2,7,13
9571,105,4096,0,9,3,4,9,4,545,3,6,13
9572,105,4096,0,9,3,4,9,3,456,4,5,13
9573,105,4096,0,9,3,4,9,1,803,5,4,13
9574,105,4096,0,9,3,4,9,3,429,6,3,13
9575,105,4096,0,9,3,4,9,4,216,7,2,13
9576,105,4096,0,9,3,4,9,2,185,8,1,13
9633,105,4169,0,4,2,3,9,1,804,1,5,14
9634,105,4169,0,4,2,3,9,3,373,2,4,14
9635,105,4169,0,4,2,3,9,4,360,3,3,14
9636,105,4169,0,4,2,3,9,3,661,4,2,14
9637,105,4169,0,4,2,3,9,2,1319,5,1,14
9717,105,8383,1,5,1,2,9,1,373,1,12,15
9718,105,8383,1,5,1,2,9,3,491,2,11,15
9719,105,8383,1,5,1,2,9,1,1340,3,10,15
9720,105,8383,1,5,1,2,9,3,1700,4,9,15
9721,105,8383,1,5,1,2,9,1,211,5,8,15
9722,105,8383,1,5,1,2,9,2,726,6,7,15
9723,105,8383,1,5,1,2,9,4,712,7,6,15
9724,105,8383,1,5,1,2,9,3,245,8,5,15
9725,105,8383,1,5,1,2,9,1,659,9,4,15
9726,105,8383,1,5,1,2,9,3,151,10,3,15
9727,105,8383,1,5,1,2,9,2,457,11,2,15
9728,105,8383,1,5,1,2,9,1,18,12,1,15
9857,105,5296,0,1,9,9,3,1,1134,1,9,16
9858,105,5296,0,1,9,9,3,3,608,2,8,16
9859,105,5296,0,1,9,9,3,4,376,3,7,16
9860,105,5296,0,1,9,9,3,2,407,4,6,16
9861,105,5296,0,1,9,9,3,4,917,5,5,16
9862,105,5296,0,1,9,9,3,2,205,6,4,16
9863,105,5296,0,1,9,9,3,3,313,7,3,16
9864,105,5296,0,1,9,9,3,1,157,8,2,16
9865,105,5296,0,1,9,9,3,2,116,9,1,16
10028,105,5455,1,5,8,6,3,1,1520,1,8,17
10029,105,5455,1,5,8,6,3,3,493,2,7,17
10030,105,5455,1,5,8,6,3,4,352,3,6,17
10031,105,5455,1,5,8,6,3,2,486,4,5,17
10032,105,5455,1,5,8,6,3,4,376,5,4,17
10033,105,5455,1,5,8,6,3,3,347,6,3,17
10034,105,5455,1,5,8,6,3,1,699,7,2,17
10035,105,5455,1,5,8,6,3,3,289,8,1,17
10065,105,6678,1,9,5,3,9,1,793,1,11,18
10066,105,6678,1,9,5,3,9,4,278,2,10,18
10067,105,6678,1,9,5,3,9,2,183,3,9,18
10068,105,6678,1,9,5,3,9,1,867,4,8,18
10069,105,6678,1,9,5,3,9,2,1262,5,7,18
10070,105,6678,1,9,5,3,9,1,370,6,6,18
10071,105,6678,1,9,5,3,9,3,361,7,5,18
10072,105,6678,1,9,5,3,9,1,352,8,4,18
10073,105,6678,1,9,5,3,9,4,411,9,3,18
10074,105,6678,1,9,5,3,9,2,305,10,2,18
10075,105,6678,1,9,5,3,9,1,243,11,1,18
10194,105,5601,1,7,8,8,4,1,319,1,8,19
10195,105,5601,1,7,8,8,4,3,731,2,7,19
10196,105,5601,1,7,8,8,4,4,352,3,6,19
10197,105,5601,1,7,8,8,4,2,381,4,5,19
10198,105,5601,1,7,8,8,4,4,407,5,4,19
10199,105,5601,1,7,8,8,4,3,1211,6,3,19
10200,105,5601,1,7,8,8,4,2,406,7,2,19
10201,105,5601,1,7,8,8,4,1,753,8,1,19
10297,105,4312,1,7,7,7,4,1,676,1,7,20
10298,105,4312,1,7,7,7,4,3,226,2,6,20
10299,105,4312,1,7,7,7,4,4,246,3,5,20
10300,105,4312,1,7,7,7,4,2,623,4,4,20
10301,105,4312,1,7,7,7,4,4,391,5,3,20
10302,105,4312,1,7,7,7,4,3,755,6,2,20
10303,105,4312,1,7,7,7,4,1,560,7,1,20
10347,105,2467,1,5,4,9,2,1,587,1,4,21
10348,105,2467,1,5,4,9,2,2,572,2,3,21
10349,105,2467,1,5,4,9,2,4,422,3,2,21
10350,105,2467,1,5,4,9,2,1,393,4,1,21
10425,105,3639,1,2,4,9,2,1,263,1,5,22
10426,105,3639,1,2,4,9,2,3,394,2,4,22
10427,105,3639,1,2,4,9,2,4,1167,3,3,22
10428,105,3639,1,2,4,9,2,2,626,4,2,22
10429,105,3639,1,2,4,9,2,1,496,5,1,22
10557,105,8156,0,8,2,4,9,1,354,1,7,23
10558,105,8156,0,8,2,4,9,3,243,2,6,23
10559,105,8156,0,8,2,4,9,1,3582,3,5,23
10560,105,8156,0,8,2,4,9,3,836,4,4,23
10561,105,8156,0,8,2,4,9,4,570,5,3,23
10562,105,8156,0,8,2,4,9,2,1086,6,2,23
10563,105,8156,0,8,2,4,9,1,281,7,1,23
10600,105,5435,0,2,7,4,7,1,362,1,7,24
10601,105,5435,0,2,7,4,7,2,1286,2,6,24
10602,105,5435,0,2,7,4,7,4,441,3,5,24
10603,105,5435,0,2,7,4,7,1,661,4,4,24
10604,105,5435,0,2,7,4,7,3,1036,5,3,24
10605,105,5435,0,2,7,4,7,4,402,6,2,24
10606,105,5435,0,2,7,4,7,2,106,7,1,24
10872,105,2804,1,3,7,9,2,1,419,1,5,25
10873,105,2804,1,3,7,9,2,2,269,2,4,25
10874,105,2804,1,3,7,9,2,4,332,3,3,25
10875,105,2804,1,3,7,9,2,3,806,4,2,25
10876,105,2804,1,3,7,9,2,1,320,5,1,25
10919,105,6487,0,8,5,3,9,1,956,1,9,26
10920,105,6487,0,8,5,3,9,2,840,2,8,26
10921,105,6487,0,8,5,3,9,4,402,3,7,26
10922,105,6487,0,8,5,3,9,3,380,4,6,26
10923,105,6487,0,8,5,3,9,1,737,5,5,26
10924,105,6487,0,8,5,3,9,3,977,6,4,26
10925,105,6487,0,8,5,3,9,1,368,7,3,26
10926,105,6487,0,8,5,3,9,3,414,8,2,26
10927,105,6487,0,8,5,3,9,2,232,9,1,26
10986,105,6465,1,7,3,2,9,1,437,1,8,27
10987,105,6465,1,7,3,2,9,2,236,2,7,27
10988,105,6465,1,7,3,2,9,3,368,3,6,27
10989,105,6465,1,7,3,2,9,1,1878,4,5,27
10990,105,6465,1,7,3,2,9,3,1494,5,4,27
10991,105,6465,1,7,3,2,9,4,179,6,3,27
10992,105,6465,1,7,3,2,9,2,381,7,2,27
10993,105,6465,1,7,3,2,9,1,355,8,1,27
11157,105,3609,1,5,3,7,2,1,476,1,5,28
11158,105,3609,1,5,3,7,2,2,409,2,4,28
11159,105,3609,1,5,3,7,2,4,352,3,3,28
11160,105,3609,1,5,3,7,2,3,344,4,2,28
11161,105,3609,1,5,3,7,2,1,1380,5,1,28
11214,105,6087,1,5,7,7,4,1,363,1,9,29
11215,105,6087,1,5,7,7,4,3,1910,2,8,29
11216,105,6087,1,5,7,7,4,1,262,3,7,29
11217,105,6087,1,5,7,7,4,2,212,4,6,29
11218,105,6087,1,5,7,7,4,4,553,5,5,29
11219,105,6087,1,5,7,7,4,2,710,6,4,29
11220,105,6087,1,5,7,7,4,1,257,7,3,29
11221,105,6087,1,5,7,7,4,3,382,8,2,29
11222,105,6087,1,5,7,7,4,1,318,9,1,29
11326,105,3818,0,6,5,3,9,1,347,1,7,30
11327,105,3818,0,6,5,3,9,3,1408,2,6,30
11328,105,3818,0,6,5,3,9,4,302,3,5,30
11329,105,3818,0,6,5,3,9,2,294,4,4,30
11330,105,3818,0,6,5,3,9,1,374,5,3,30
11331,105,3818,0,6,5,3,9,2,189,6,2,30
11332,105,3818,0,6,5,3,9,1,193,7,1,30
11387,105,3213,0,9,6,3,8,1,253,1,4,31
11388,105,3213,0,9,6,3,8,3,802,2,3,31
11389,105,3213,0,9,6,3,8,4,330,3,2,31
11390,105,3213,0,9,6,3,8,2,1263,4,1,31
11419,105,2553,1,7,4,7,2,1,730,1,5,32
11420,105,2553,1,7,4,7,2,2,199,2,4,32
11421,105,2553,1,7,4,7,2,4,328,3,3,32
11422,105,2553,1,7,4,7,2,3,492,4,2,32
11423,105,2553,1,7,4,7,2,1,224,5,1,32
11635,105,9710,1,7,3,3,9,1,234,1,11,33
11636,105,9710,1,7,3,3,9,2,330,2,10,33
11637,105,9710,1,7,3,3,9,4,301,3,9,33
11638,105,9710,1,7,3,3,9,2,419,4,8,33
11639,105,9710,1,7,3,3,9,4,958,5,7,33
11640,105,9710,1,7,3,3,9,3,167,6,6,33
11641,105,9710,1,7,3,3,9,1,568,7,5,33
11642,105,9710,1,7,3,3,9,3,906,8,4,33
11643,105,9710,1,7,3,3,9,1,85,9,3,33
11644,105,9710,1,7,3,3,9,2,3960,10,2,33
11645,105,9710,1,7,3,3,9,1,319,11,1,33
11761,105,2511,0,8,5,4,8,1,427,1,6,34
11762,105,2511,0,8,5,4,8,3,318,2,5,34
11763,105,2511,0,8,5,4,8,1,129,3,4,34
11764,105,2511,0,8,5,4,8,2,385,4,3,34
11765,105,2511,0,8,5,4,8,4,280,5,2,34
11766,105,2511,0,8,5,4,8,2,295,6,1,34
11824,105,4653,1,7,2,7,4,1,531,1,7,35
11825,105,4653,1,7,2,7,4,3,738,2,6,35
11826,105,4653,1,7,2,7,4,4,352,3,5,35
11827,105,4653,1,7,2,7,4,2,349,4,4,35
11828,105,4653,1,7,2,7,4,4,1078,5,3,35
11829,105,4653,1,7,2,7,4,2,197,6,2,35
11830,105,4653,1,7,2,7,4,1,640,7,1,35
11896,105,6610,0,5,6,3,9,1,1916,1,6,36
11897,105,6610,0,5,6,3,9,2,2529,2,5,36
11898,105,6610,0,5,6,3,9,4,444,3,4,36
11899,105,6610,0,5,6,3,9,3,460,4,3,36
11900,105,6610,0,5,6,3,9,1,191,5,2,36
11901,105,6610,0,5,6,3,9,2,134,6,1,36
12031,105,3313,0,4,9,2,7,1,253,1,6,37
12032,105,3313,0,4,9,2,7,2,391,2,5,37
12033,105,3313,0,4,9,2,7,1,411,3,4,37
12034,105,3313,0,4,9,2,7,3,448,4,3,37
12035,105,3313,0,4,9,2,7,4,466,5,2,37
12036,105,3313,0,4,9,2,7,2,642,6,1,37
12096,105,4448,1,6,7,6,2,2,275,1,6,38
12097,105,4448,1,6,7,6,2,1,725,2,5,38
12098,105,4448,1,6,7,6,2,3,660,3,4,38
12099,105,4448,1,6,7,6,2,4,1004,4,3,38
12100,105,4448,1,6,7,6,2,2,193,5,2,38
12101,105,4448,1,6,7,6,2,1,731,6,1,38
12345,105,3074,0,7,6,2,7,1,464,1,4,39
12346,105,3074,0,7,6,2,7,3,639,2,3,39
12347,105,3074,0,7,6,2,7,2,861,3,2,39
12348,105,3074,0,7,6,2,7,4,568,4,1,39
12519,105,3552,0,7,7,4,7,1,417,1,8,40
12520,105,3552,0,7,7,4,7,2,396,2,7,40
12521,105,3552,0,7,7,4,7,4,311,3,6,40
12522,105,3552,0,7,7,4,7,3,302,4,5,40
12523,105,3552,0,7,7,4,7,1,598,5,4,40
12524,105,3552,0,7,7,4,7,3,344,6,3,40
12525,105,3552,0,7,7,4,7,1,37,7,2,40
12526,105,3552,0,7,7,4,7,2,364,8,1,40
12589,105,5249,0,7,6,3,6,1,389,1,6,41
12590,105,5249,0,7,6,3,6,3,1798,2,5,41
12591,105,5249,0,7,6,3,6,1,1009,3,4,41
12592,105,5249,0,7,6,3,6,2,481,4,3,41
12593,105,5249,0,7,6,3,6,4,284,5,2,41
12594,105,5249,0,7,6,3,6,2,403,6,1,41
12640,105,3512,1,6,9,6,4,1,464,1,5,42
12641,105,3512,1,6,9,6,4,2,385,2,4,42
12642,105,3512,1,6,9,6,4,4,649,3,3,42
12643,105,3512,1,6,9,6,4,3,457,4,2,42
12644,105,3512,1,6,9,6,4,1,767,5,1,42
12823,105,4009,0,7,6,2,9,1,217,1,6,43
12824,105,4009,0,7,6,2,9,3,389,2,5,43
12825,105,4009,0,7,6,2,9,1,163,3,4,43
12826,105,4009,0,7,6,2,9,2,456,4,3,43
12827,105,4009,0,7,6,2,9,4,718,5,2,43
12828,105,4009,0,7,6,2,9,2,1228,6,1,43
13030,105,3125,1,6,6,9,4,1,844,1,5,44
13031,105,3125,1,6,6,9,4,3,425,2,4,44
13032,105,3125,1,6,6,9,4,4,189,3,3,44
13033,105,3125,1,6,6,9,4,2,765,4,2,44
13034,105,3125,1,6,6,9,4,1,351,5,1,44
13105,105,7596,0,3,5,2,6,1,392,1,11,45
13106,105,7596,0,3,5,2,6,3,801,2,10,45
13107,105,7596,0,3,5,2,6,1,1138,3,9,45
13108,105,7596,0,3,5,2,6,3,414,4,8,45
13109,105,7596,0,3,5,2,6,2,378,5,7,45
13110,105,7596,0,3,5,2,6,4,1613,6,6,45
13111,105,7596,0,3,5,2,6,2,289,7,5,45
13112,105,7596,0,3,5,2,6,4,401,8,4,45
13113,105,7596,0,3,5,2,6,2,478,9,3,45
13114,105,7596,0,3,5,2,6,4,348,10,2,45
13115,105,7596,0,3,5,2,6,2,28,11,1,45
13143,105,4108,1,5,6,8,3,1,348,1,7,46
13144,105,4108,1,5,6,8,3,3,619,2,6,46
13145,105,4108,1,5,6,8,3,4,211,3,5,46
13146,105,4108,1,5,6,8,3,2,517,4,4,46
13147,105,4108,1,5,6,8,3,4,794,5,3,46
13148,105,4108,1,5,6,8,3,3,547,6,2,46
13149,105,4108,1,5,6,8,3,1,258,7,1,46
13196,105,3645,1,5,8,7,4,1,368,1,8,47
13197,105,3645,1,5,8,7,4,3,248,2,7,47
13198,105,3645,1,5,8,7,4,4,164,3,6,47
13199,105,3645,1,5,8,7,4,2,344,4,5,47
13200,105,3645,1,5,8,7,4,4,337,5,4,47
13201,105,3645,1,5,8,7,4,2,535,6,3,47
13202,105,3645,1,5,8,7,4,3,426,7,2,47
13203,105,3645,1,5,8,7,4,1,377,8,1,47
13496,105,4172,0,7,6,3,8,1,769,1,6,48
13497,105,4172,0,7,6,3,8,3,1587,2,5,48
13498,105,4172,0,7,6,3,8,1,127,3,4,48
13499,105,4172,0,7,6,3,8,2,255,4,3,48
13500,105,4172,0,7,6,3,8,4,217,5,2,48
13501,105,4172,0,7,6,3,8,2,445,6,1,48
13715,105,4006,1,6,5,6,3,1,300,1,7,49
13716,105,4006,1,6,5,6,3,3,343,2,6,49
13717,105,4006,1,6,5,6,3,4,567,3,5,49
13718,105,4006,1,6,5,6,3,2,694,4,4,49
13719,105,4006,1,6,5,6,3,4,744,5,3,49
13720,105,4006,1,6,5,6,3,3,304,6,2,49
13721,105,4006,1,6,5,6,3,1,246,7,1,49
13825,105,3313,1,7,9,8,4,1,300,1,7,50
13826,105,3313,1,7,9,8,4,3,427,2,6,50
13827,105,3313,1,7,9,8,4,4,242,3,5,50
13828,105,3313,1,7,9,8,4,2,405,4,4,50
13829,105,3313,1,7,9,8,4,4,544,5,3,50
13830,105,3313,1,7,9,8,4,3,270,6,2,50
13831,105,3313,1,7,9,8,4,1,462,7,1,50
13863,105,3361,1,9,4,7,4,1,981,1,6,51
13864,105,3361,1,9,4,7,4,2,379,2,5,51
13865,105,3361,1,9,4,7,4,4,302,3,4,51
13866,105,3361,1,9,4,7,4,2,455,4,3,51
13867,105,3361,1,9,4,7,4,3,366,5,2,51
13868,105,3361,1,9,4,7,4,1,192,6,1,51
14032,105,2766,0,6,3,3,9,1,427,1,5,52
14033,105,2766,0,6,3,3,9,3,719,2,4,52
14034,105,2766,0,6,3,3,9,4,170,3,3,52
14035,105,2766,0,6,3,3,9,2,468,4,2,52
14036,105,2766,0,6,3,3,9,1,386,5,1,52
14169,105,4089,1,9,9,7,3,1,396,1,7,53
14170,105,4089,1,9,9,7,3,2,334,2,6,53
14171,105,4089,1,9,9,7,3,4,268,3,5,53
14172,105,4089,1,9,9,7,3,2,1212,4,4,53
14173,105,4089,1,9,9,7,3,4,358,5,3,53
14174,105,4089,1,9,9,7,3,3,347,6,2,53
14175,105,4089,1,9,9,7,3,1,470,7,1,53
14216,105,4386,1,5,5,6,2,1,554,1,8,54
14217,105,4386,1,5,5,6,2,3,301,2,7,54
14218,105,4386,1,5,5,6,2,1,473,3,6,54
14219,105,4386,1,5,5,6,2,2,1261,4,5,54
14220,105,4386,1,5,5,6,2,4,267,5,4,54
14221,105,4386,1,5,5,6,2,2,316,6,3,54
14222,105,4386,1,5,5,6,2,3,130,7,2,54
14223,105,4386,1,5,5,6,2,1,54,8,1,54
14851,105,3864,1,7,4,7,4,1,593,1,4,55
14852,105,3864,1,7,4,7,4,3,181,2,3,55
14853,105,3864,1,7,4,7,4,2,1057,3,2,55
14854,105,3864,1,7,4,7,4,1,1509,4,1,55
14889,105,5408,1,7,7,8,4,1,1981,1,6,56
14890,105,5408,1,7,7,8,4,3,224,2,5,56
14891,105,5408,1,7,7,8,4,2,405,3,4,56
14892,105,5408,1,7,7,8,4,4,339,4,3,56
14893,105,5408,1,7,7,8,4,3,1130,5,2,56
14894,105,5408,1,7,7,8,4,1,355,6,1,56
15031,105,4662,1,6,8,6,3,1,857,1,5,57
15032,105,4662,1,6,8,6,3,2,680,2,4,57
15033,105,4662,1,6,8,6,3,4,1203,3,3,57
15034,105,4662,1,6,8,6,3,3,711,4,2,57
15035,105,4662,1,6,8,6,3,1,326,5,1,57
15093,105,1858,0,4,6,2,9,1,590,1,2,58
15094,105,1858,0,4,6,2,9,2,908,2,1,58
15141,105,4709,0,4,6,4,7,1,363,1,8,59
15142,105,4709,0,4,6,4,7,3,426,2,7,59
15143,105,4709,0,4,6,4,7,1,163,3,6,59
15144,105,4709,0,4,6,4,7,2,419,4,5,59
15145,105,4709,0,4,6,4,7,4,533,5,4,59
15146,105,4709,0,4,6,4,7,2,1174,6,3,59
15147,105,4709,0,4,6,4,7,4,290,7,2,59
15148,105,4709,0,4,6,4,7,2,438,8,1,59
15205,105,3485,0,7,7,3,7,1,396,1,5,60
15206,105,3485,0,7,7,3,7,3,716,2,4,60
15207,105,3485,0,7,7,3,7,2,513,3,3,60
15208,105,3485,0,7,7,3,7,4,357,4,2,60
15209,105,3485,0,7,7,3,7,2,813,5,1,60
15297,105,2205,1,6,4,6,2,1,346,1,5,61
15298,105,2205,1,6,4,6,2,2,500,2,4,61
15299,105,2205,1,6,4,6,2,1,263,3,3,61
15300,105,2205,1,6,4,6,2,3,281,4,2,61
15301,105,2205,1,6,4,6,2,1,269,5,1,61
15495,105,2190,0,7,5,3,6,1,481,1,5,62
15496,105,2190,0,7,5,3,6,3,365,2,4,62
15497,105,2190,0,7,5,3,6,4,298,3,3,62
15498,105,2190,0,7,5,3,6,2,442,4,2,62
15499,105,2190,0,7,5,3,6,4,82,5,1,62
15669,105,2019,0,8,3,3,6,1,240,1,4,63
15670,105,2019,0,8,3,3,6,3,200,2,3,63
15671,105,2019,0,8,3,3,6,4,319,3,2,63
15672,105,2019,0,8,3,3,6,2,793,4,1,63
15732,105,2182,0,9,7,4,9,1,290,1,4,64
15733,105,2182,0,9,7,4,9,3,250,2,3,64
15734,105,2182,0,9,7,4,9,4,346,3,2,64
15735,105,2182,0,9,7,4,9,2,785,4,1,64
15761,105,6249,1,7,2,2,9,1,236,1,9,65
15762,105,6249,1,7,2,2,9,3,173,2,8,65
15763,105,6249,1,7,2,2,9,4,187,3,7,65
15764,105,6249,1,7,2,2,9,2,663,4,6,65
15765,105,6249,1,7,2,2,9,4,224,5,5,65
15766,105,6249,1,7,2,2,9,3,690,6,4,65
15767,105,6249,1,7,2,2,9,1,240,7,3,65
15768,105,6249,1,7,2,2,9,2,908,8,2,65
15769,105,6249,1,7,2,2,9,1,798,9,1,65
15859,105,2270,0,7,7,2,7,1,298,1,4,66
15860,105,2270,0,7,7,2,7,3,323,2,3,66
15861,105,2270,0,7,7,2,7,4,547,3,2,66
15862,105,2270,0,7,7,2,7,2,546,4,1,66
16136,105,2807,1,3,9,6,4,1,330,1,5,67
16137,105,2807,1,3,9,6,4,3,302,2,4,67
16138,105,2807,1,3,9,6,4,4,299,3,3,67
16139,105,2807,1,3,9,6,4,2,471,4,2,67
16140,105,2807,1,3,9,6,4,1,809,5,1,67
16328,105,1625,1,7,8,7,4,1,365,1,4,68
16329,105,1625,1,7,8,7,4,3,285,2,3,68
16330,105,1625,1,7,8,7,4,2,341,3,2,68
16331,105,1625,1,7,8,7,4,1,135,4,1,68
16491,105,1787,1,6,7,9,2,1,502,1,5,69
16492,105,1787,1,6,7,9,2,3,267,2,4,69
16493,105,1787,1,6,7,9,2,4,115,3,3,69
16494,105,1787,1,6,7,9,2,2,214,4,2,69
16495,105,1787,1,6,7,9,2,1,213,5,1,69
16762,105,3164,0,3,5,9,2,1,350,1,5,70
16763,105,3164,0,3,5,9,2,3,617,2,4,70
16764,105,3164,0,3,5,9,2,4,306,3,3,70
16765,105,3164,0,3,5,9,2,2,411,4,2,70
16766,105,3164,0,3,5,9,2,1,786,5,1,70
16944,105,2432,1,7,7,7,2,1,316,1,5,71
16945,105,2432,1,7,7,7,2,2,490,2,4,71
16946,105,2432,1,7,7,7,2,4,269,3,3,71
16947,105,2432,1,7,7,7,2,3,376,4,2,71
16948,105,2432,1,7,7,7,2,1,415,5,1,71
17003,105,1548,0,4,8,2,6,1,200,1,2,72
17004,105,1548,0,4,8,2,6,2,984,2,1,72
17075,105,1157,1,9,8,7,3,1,370,1,4,73
17076,105,1157,1,9,8,7,3,4,114,2,3,73
17077,105,1157,1,9,8,7,3,2,192,3,2,73
17078,105,1157,1,9,8,7,3,1,78,4,1,73
17206,105,4051,1,6,9,7,4,1,457,1,9,74
17207,105,4051,1,6,9,7,4,3,857,2,8,74
17208,105,4051,1,6,9,7,4,4,315,3,7,74
17209,105,4051,1,6,9,7,4,1,281,4,6,74
17210,105,4051,1,6,9,7,4,2,489,5,5,74
17211,105,4051,1,6,9,7,4,4,347,6,4,74
17212,105,4051,1,6,9,7,4,1,252,7,3,74
17213,105,4051,1,6,9,7,4,3,184,8,2,74
17214,105,4051,1,6,9,7,4,1,3,9,1,74
17526,105,2222,1,6,9,9,4,1,763,1,5,75
17527,105,2222,1,6,9,9,4,2,388,2,4,75
17528,105,2222,1,6,9,9,4,4,223,3,3,75
17529,105,2222,1,6,9,9,4,3,165,4,2,75
17530,105,2222,1,6,9,9,4,1,159,5,1,75
17715,105,2224,0,8,7,3,9,1,1041,1,2,76
17716,105,2224,0,8,7,3,9,2,776,2,1,76
17946,105,2039,0,7,5,2,9,1,218,1,4,77
17947,105,2039,0,7,5,2,9,3,31,2,3,77
17948,105,2039,0,7,5,2,9,4,303,3,2,77
17949,105,2039,0,7,5,2,9,2,746,4,1,77
18010,105,2259,1,6,4,6,2,1,731,1,5,78
18011,105,2259,1,6,4,6,2,3,143,2,4,78
18012,105,2259,1,6,4,6,2,4,132,3,3,78
18013,105,2259,1,6,4,6,2,2,263,4,2,78
18014,105,2259,1,6,4,6,2,1,309,5,1,78
18068,105,2083,0,7,7,2,9,1,297,1,4,79
18069,105,2083,0,7,7,2,9,3,218,2,3,79
18070,105,2083,0,7,7,2,9,4,172,3,2,79
18071,105,2083,0,7,7,2,9,2,915,4,1,79
18121,105,890,1,5,4,8,2,1,263,1,3,80
18122,105,890,1,5,4,8,2,3,155,2,2,80
18123,105,890,1,5,4,8,2,2,100,3,1,80
18235,105,2334,1,7,6,8,3,1,533,1,5,81
18236,105,2334,1,7,6,8,3,2,441,2,4,81
18237,105,2334,1,7,6,8,3,4,279,3,3,81
18238,105,2334,1,7,6,8,3,2,166,4,2,81
18239,105,2334,1,7,6,8,3,1,274,5,1,81
18292,105,2286,1,5,7,7,2,1,306,1,5,82
18293,105,2286,1,5,7,7,2,3,200,2,4,82
18294,105,2286,1,5,7,7,2,4,321,3,3,82
18295,105,2286,1,5,7,7,2,2,67,4,2,82
18296,105,2286,1,5,7,7,2,1,901,5,1,82
18428,105,1674,0,6,9,3,7,1,281,1,4,83
18429,105,1674,0,6,9,3,7,3,130,2,3,83
18430,105,1674,0,6,9,3,7,4,422,3,2,83
18431,105,1674,0,6,9,3,7,2,435,4,1,83
18522,105,1771,1,5,9,7,4,1,301,1,5,84
18523,105,1771,1,5,9,7,4,2,154,2,4,84
18524,105,1771,1,5,9,7,4,4,232,3,3,84
18525,105,1771,1,5,9,7,4,2,211,4,2,84
18526,105,1771,1,5,9,7,4,1,374,5,1,84
18619,105,4288,1,6,9,9,3,1,509,1,6,85
18620,105,4288,1,6,9,9,3,3,187,2,5,85
18621,105,4288,1,6,9,9,3,1,2152,3,4,85
18622,105,4288,1,6,9,9,3,2,341,4,3,85
18623,105,4288,1,6,9,9,3,4,261,5,2,85
18624,105,4288,1,6,9,9,3,1,93,6,1,85
18672,105,1530,0,4,5,2,7,1,347,1,4,86
18673,105,1530,0,4,5,2,7,2,232,2,3,86
18674,105,1530,0,4,5,2,7,4,211,3,2,86
18675,105,1530,0,4,5,2,7,2,212,4,1,86
18774,105,2232,0,7,5,4,6,1,384,1,4,87
18775,105,2232,0,7,5,4,6,3,252,2,3,87
18776,105,2232,0,7,5,4,6,4,313,3,2,87
18777,105,2232,0,7,5,4,6,2,661,4,1,87
18932,105,3739,1,5,7,7,2,1,553,1,5,88
18933,105,3739,1,5,7,7,2,3,303,2,4,88
18934,105,3739,1,5,7,7,2,4,233,3,3,88
18935,105,3739,1,5,7,7,2,2,334,4,2,88
18936,105,3739,1,5,7,7,2,1,996,5,1,88
19028,105,1840,0,7,5,3,6,1,432,1,4,89
19029,105,1840,0,7,5,3,6,2,419,2,3,89
19030,105,1840,0,7,5,3,6,4,219,3,2,89
19031,105,1840,0,7,5,3,6,3,259,4,1,89
19076,105,2420,0,8,7,4,8,1,870,1,4,90
19077,105,2420,0,8,7,4,8,3,310,2,3,90
19078,105,2420,0,8,7,4,8,4,189,3,2,90
19079,105,2420,0,8,7,4,8,2,582,4,1,90
19121,105,1991,0,7,6,2,8,1,905,1,2,91
19122,105,1991,0,7,6,2,8,2,750,2,1,91
19218,105,2404,0,7,8,4,6,1,398,1,7,92
19219,105,2404,0,7,8,4,6,2,306,2,6,92
19220,105,2404,0,7,8,4,6,4,230,3,5,92
19221,105,2404,0,7,8,4,6,3,266,4,4,92
19222,105,2404,0,7,8,4,6,1,88,5,3,92
19223,105,2404,0,7,8,4,6,4,229,6,2,92
19224,105,2404,0,7,8,4,6,2,120,7,1,92
19441,105,1391,0,4,6,3,6,1,344,1,2,93
19442,105,1391,0,4,6,3,6,2,747,2,1,93
19490,105,1248,1,6,8,7,4,1,452,1,3,94
19491,105,1248,1,6,8,7,4,2,282,2,2,94
19492,105,1248,1,6,8,7,4,1,100,3,1,94
19586,105,4306,1,2,8,9,4,1,266,1,8,95
19587,105,4306,1,2,8,9,4,2,262,2,7,95
19588,105,4306,1,2,8,9,4,1,58,3,6,95
19589,105,4306,1,2,8,9,4,4,391,4,5,95
19590,105,4306,1,2,8,9,4,3,245,5,4,95
19591,105,4306,1,2,8,9,4,1,351,6,3,95
19592,105,4306,1,2,8,9,4,3,172,7,2,95
19593,105,4306,1,2,8,9,4,1,94,8,1,95
19803,105,5085,0,7,3,2,6,1,367,1,7,96
19804,105,5085,0,7,3,2,6,3,437,2,6,96
19805,105,5085,0,7,3,2,6,4,326,3,5,96
19806,105,5085,0,7,3,2,6,2,563,4,4,96
19807,105,5085,0,7,3,2,6,4,1404,5,3,96
19808,105,5085,0,7,3,2,6,2,469,6,2,96
19809,105,5085,0,7,3,2,6,4,452,7,1,96
20254,105,2034,1,7,3,9,2,1,272,1,3,97
20255,105,2034,1,7,3,9,2,2,434,2,2,97
20256,105,2034,1,7,3,9,2,1,812,3,1,97
20319,105,2490,0,4,5,4,6,1,372,1,6,98
20320,105,2490,0,4,5,4,6,2,252,2,5,98
20321,105,2490,0,4,5,4,6,4,686,3,4,98
20322,105,2490,0,4,5,4,6,3,157,4,3,98
20323,105,2490,0,4,5,4,6,1,185,5,2,98
20324,105,2490,0,4,5,4,6,2,247,6,1,98
20356,105,3995,1,7,2,2,9,1,349,1,9,99
20357,105,3995,1,7,2,2,9,2,233,2,8,99
20358,105,3995,1,7,2,2,9,4,145,3,7,99
20359,105,3995,1,7,2,2,9,3,670,4,6,99
20360,105,3995,1,7,2,2,9,4,132,5,5,99
20361,105,3995,1,7,2,2,9,2,197,6,4,99
20362,105,3995,1,7,2,2,9,1,499,7,3,99
20363,105,3995,1,7,2,2,9,3,619,8,2,99
20364,105,3995,1,7,2,2,9,1,124,9,1,99
20401,105,1624,1,6,6,6,3,1,394,1,6,100
20402,105,1624,1,6,6,6,3,3,111,2,5,100
20403,105,1624,1,6,6,6,3,2,162,3,4,100
20404,105,1624,1,6,6,6,3,4,142,4,3,100
20405,105,1624,1,6,6,6,3,2,133,5,2,100
20406,105,1624,1,6,6,6,3,1,119,6,1,100
20719,105,2888,0,6,7,3,7,1,661,1,7,101
20720,105,2888,0,6,7,3,7,3,310,2,6,101
20721,105,2888,0,6,7,3,7,4,462,3,5,101
20722,105,2888,0,6,7,3,7,2,301,4,4,101
20723,105,2888,0,6,7,3,7,4,239,5,3,101
20724,105,2888,0,6,7,3,7,2,210,6,2,101
20725,105,2888,0,6,7,3,7,1,8,7,1,101
20852,105,923,1,6,3,9,2,1,354,1,3,102
20853,105,923,1,6,3,9,2,2,170,2,2,102
20854,105,923,1,6,3,9,2,1,18,3,1,102
20975,105,1071,1,7,4,7,4,1,300,1,3,103
20976,105,1071,1,7,4,7,4,3,243,2,2,103
20977,105,1071,1,7,4,7,4,2,172,3,1,103
7746,106,3458,0,8,5,4,9,1,372,1,4,1
7747,106,3458,0,8,5,4,9,2,546,2,3,1
7748,106,3458,0,8,5,4,9,1,406,3,2,1
7749,106,3458,0,8,5,4,9,2,721,4,1,1
7826,106,2129,0,7,6,4,7,2,387,1,3,2
7827,106,2129,0,7,6,4,7,1,326,2,2,2
7828,106,2129,0,7,6,4,7,2,815,3,1,2
7922,106,1784,1,8,3,4,8,2,395,1,2,3
7923,106,1784,1,8,3,4,8,1,708,2,1,3
7976,106,1533,0,6,4,2,6,2,327,1,4,4
7977,106,1533,0,6,4,2,6,1,278,2,3,4
7978,106,1533,0,6,4,2,6,4,98,3,2,4
7979,106,1533,0,6,4,2,6,2,148,4,1,4
8112,106,1759,1,7,7,6,3,1,252,1,5,5
8113,106,1759,1,7,7,6,3,2,298,2,4,5
8114,106,1759,1,7,7,6,3,4,120,3,3,5
8115,106,1759,1,7,7,6,3,3,99,4,2,5
8116,106,1759,1,7,7,6,3,1,298,5,1,5
8212,106,3368,0,8,3,2,8,1,43,1,4,6
8213,106,3368,0,8,3,2,8,2,1061,2,3,6
8214,106,3368,0,8,3,2,8,1,444,3,2,6
8215,106,3368,0,8,3,2,8,2,933,4,1,6
8455,106,2289,1,6,8,7,4,1,350,1,3,7
8456,106,2289,1,6,8,7,4,2,561,2,2,7
8457,106,2289,1,6,8,7,4,1,745,3,1,7
8506,106,1546,1,4,6,6,5,1,279,1,4,8
8507,106,1546,1,4,6,6,5,2,432,2,3,8
8508,106,1546,1,4,6,6,5,3,109,3,2,8
8509,106,1546,1,4,6,6,5,1,216,4,1,8
8672,106,1691,1,7,8,7,2,1,342,1,3,9
8673,106,1691,1,7,8,7,2,2,443,2,2,9
8674,106,1691,1,7,8,7,2,1,391,3,1,9
9138,106,2005,0,7,2,6,3,2,501,1,3,10
9139,106,2005,0,7,2,6,3,1,498,2,2,10
9140,106,2005,0,7,2,6,3,2,507,3,1,10
9183,106,2331,1,9,7,2,7,1,255,1,3,11
9184,106,2331,1,9,7,2,7,2,739,2,2,11
9185,106,2331,1,9,7,2,7,1,706,3,1,11
9204,106,1602,0,2,5,3,8,1,343,1,2,12
9205,106,1602,0,2,5,3,8,2,861,2,1,12
9338,106,1776,1,5,7,9,4,1,446,1,3,13
9339,106,1776,1,5,7,9,4,2,621,2,2,13
9340,106,1776,1,5,7,9,4,1,218,3,1,13
9577,106,1858,1,9,4,2,9,1,347,1,3,14
9578,106,1858,1,9,4,2,9,2,432,2,2,14
9579,106,1858,1,9,4,2,9,1,615,3,1,14
9772,106,1805,1,7,5,7,2,1,129,1,3,15
9773,106,1805,1,7,5,7,2,2,509,2,2,15
9774,106,1805,1,7,5,7,2,1,573,3,1,15
9818,106,2086,0,9,8,2,6,1,282,1,4,16
9819,106,2086,0,9,8,2,6,2,369,2,3,16
9820,106,2086,0,9,8,2,6,4,272,3,2,16
9821,106,2086,0,9,8,2,6,2,503,4,1,16
9866,106,3032,1,4,3,4,6,1,293,1,7,17
9867,106,3032,1,4,3,4,6,2,572,2,6,17
9868,106,3032,1,4,3,4,6,1,220,3,5,17
9869,106,3032,1,4,3,4,6,3,223,4,4,17
9870,106,3032,1,4,3,4,6,4,261,5,3,17
9871,106,3032,1,4,3,4,6,3,186,6,2,17
9872,106,3032,1,4,3,4,6,1,331,7,1,17
9913,106,3052,1,8,7,4,7,1,348,1,7,18
9914,106,3052,1,8,7,4,7,2,360,2,6,18
9915,106,3052,1,8,7,4,7,4,186,3,5,18
9916,106,3052,1,8,7,4,7,3,204,4,4,18
