,subj,trial,choice,roi,rt,upleftval,uprightval,downleftval,downrightval,fixdur,fixnum,revfixnum
10,11,6,1,2,1208.9,276,220,42,191,151.5,1,1
11,11,7,1,3,1363,300,280,89,250,229.8,1,2
12,11,7,1,2,1363,300,280,89,250,84.7,2,1
16,11,9,0,2,1629,290,250,56,237,247.91,1,2
17,11,9,0,4,1629,290,250,56,237,574.03,2,1
18,11,10,1,3,1893.9,167,200,143,62,248.9,1,4
19,11,10,1,1,1893.9,167,200,143,62,232.87,2,3
20,11,10,1,4,1893.9,167,200,143,62,423,3,2
21,11,10,1,2,1893.9,167,200,143,62,305.8,4,1
29,11,15,1,2,830.72,229,239,144,32,249.6,1,1
33,11,17,0,3,1616.2,300,260,50,250,228.01,1,4
34,11,17,0,2,1616.2,300,260,50,250,101.05,2,3
35,11,17,0,4,1616.2,300,260,50,250,479,3,2
36,11,17,0,2,1616.2,300,260,50,250,17.7,4,1
37,11,18,0,1,2770.2,200,267,154,30,2,1,4
38,11,18,0,3,2770.2,200,267,154,30,284,2,3
39,11,18,0,4,2770.2,200,267,154,30,409.1,3,2
40,11,18,0,2,2770.2,200,267,154,30,56.4,4,1
41,11,19,1,2,2470.7,232,287,214,20,336.8,1,3
42,11,19,1,1,2470.7,232,287,214,20,212.9,2,2
43,11,19,1,3,2470.7,232,287,214,20,318.4,3,1
52,11,22,1,3,2523,267,277,241,48,300.98,1,5
53,11,22,1,2,2523,267,277,241,48,177.94,2,4
54,11,22,1,4,2523,267,277,241,48,237.9,3,3
55,11,22,1,1,2523,267,277,241,48,182.1,4,2
56,11,22,1,3,2523,267,277,241,48,624.4,5,1
57,11,23,0,3,1405.7,271,236,58,167,223.91,1,4
58,11,23,0,4,1405.7,271,236,58,167,284.16,2,3
59,11,23,0,2,1405.7,271,236,58,167,428,3,2
60,11,23,0,4,1405.7,271,236,58,167,67.5,4,1
76,11,27,0,1,1484.6,278,256,69,250,174.02,1,3
77,11,27,0,2,1484.6,278,256,69,250,224.05,2,2
78,11,27,0,4,1484.6,278,256,69,250,505.11,3,1
79,11,28,1,2,2014.7,272,186,12,153,512.1,1,3
80,11,28,1,1,2014.7,272,186,12,153,246.9,2,2
81,11,28,1,3,2014.7,272,186,12,153,179.4,3,1
83,11,30,0,2,1857.4,280,240,24,209,190.96,1,5
84,11,30,0,1,1857.4,280,240,24,209,37,2,4
85,11,30,0,4,1857.4,280,240,24,209,238.08,3,3
86,11,30,0,2,1857.4,280,240,24,209,523.1,4,2
87,11,30,0,4,1857.4,280,240,24,209,261.3,5,1
104,11,38,0,2,864.32,250,273,241,102,243.94,1,1
105,11,39,0,4,1218.4,200,235,155,50,222.81,1,3
106,11,39,0,3,1218.4,200,235,155,50,230.86,2,2
107,11,39,0,1,1218.4,200,235,155,50,58.1,3,1
108,11,40,0,2,1191.8,191,246,187,68,190.86,1,3
109,11,40,0,4,1191.8,191,246,187,68,212.09,2,2
110,11,40,0,1,1191.8,191,246,187,68,362.13,3,1
145,11,58,1,4,2081.2,294,226,37,134,162.12,1,7
146,11,58,1,1,2081.2,294,226,37,134,214.94,2,6
147,11,58,1,3,2081.2,294,226,37,134,153.03,3,5
148,11,58,1,4,2081.2,294,226,37,134,214.92,4,4
149,11,58,1,2,2081.2,294,226,37,134,524.4,5,3
150,11,58,1,1,2081.2,294,226,37,134,314.1,6,2
151,11,58,1,3,2081.2,294,226,37,134,82.1,7,1
159,11,61,1,1,1601.8,230,259,199,54,256.73,1,4
160,11,61,1,2,1601.8,230,259,199,54,5.94,2,3
161,11,61,1,4,1601.8,230,259,199,54,220.97,3,2
162,11,61,1,3,1601.8,230,259,199,54,460.9,4,1
167,11,63,1,1,596.58,270,250,105,234,208.55,1,2
168,11,63,1,3,596.58,270,250,105,234,42.1,2,1
181,11,68,1,4,1953,241,261,220,60,158.04,1,4
182,11,68,1,1,1953,241,261,220,60,236.91,2,3
183,11,68,1,3,1953,241,261,220,60,676.9,3,2
184,11,68,1,1,1953,241,261,220,60,131.1,4,1
194,11,72,1,1,1830.2,260,300,250,30,184.83,1,7
195,11,72,1,2,1830.2,260,300,250,30,166.09,2,6
196,11,72,1,4,1830.2,260,300,250,30,240.15,3,5
197,11,72,1,3,1830.2,260,300,250,30,279.9,4,4
198,11,72,1,1,1830.2,260,300,250,30,262,5,3
199,11,72,1,3,1830.2,260,300,250,30,198,6,2
200,11,72,1,2,1830.2,260,300,250,30,37.7,7,1
204,11,74,1,2,1579,262,290,258,111,227.82,1,4
205,11,74,1,4,1579,262,290,258,111,177.06,2,3
206,11,74,1,3,1579,262,290,258,111,376.8,3,2
207,11,74,1,1,1579,262,290,258,111,9.8,4,1
213,11,77,1,3,1733.5,203,291,174,50,274.69,1,2
214,11,77,1,1,1733.5,203,291,174,50,36.7,2,1
215,11,78,1,3,1095.5,260,295,240,61,5.71,1,2
216,11,78,1,1,1095.5,260,295,240,61,202.97,2,1
227,11,82,1,2,4183.4,250,281,171,62,229.01,1,12
228,11,82,1,1,4183.4,250,281,171,62,133.02,2,11
229,11,82,1,3,4183.4,250,281,171,62,250.99,3,10
230,11,82,1,4,4183.4,250,281,171,62,379.96,4,9
231,11,82,1,2,4183.4,250,281,171,62,277,5,8
232,11,82,1,4,4183.4,250,281,171,62,150.1,6,7
233,11,82,1,2,4183.4,250,281,171,62,7.9,7,6
234,11,82,1,1,4183.4,250,281,171,62,19.3,8,5
235,11,82,1,3,4183.4,250,281,171,62,811.8,9,4
236,11,82,1,4,4183.4,250,281,171,62,283.9,10,3
237,11,82,1,1,4183.4,250,281,171,62,5.8,11,2
238,11,82,1,2,4183.4,250,281,171,62,205.4,12,1
242,11,84,1,3,634.81,282,267,50,250,18.82,1,1
278,11,98,0,2,1069.8,255,245,33,240,395.87,1,2
279,11,98,0,4,1069.8,255,245,33,240,336.34,2,1
284,11,100,1,2,1982.4,240,289,152,28,205.83,1,3
285,11,100,1,1,1982.4,240,289,152,28,641.94,2,2
286,11,100,1,3,1982.4,240,289,152,28,286.2,3,1
287,11,101,0,4,1074.1,289,246,116,188,313.92,1,2
288,11,101,0,2,1074.1,289,246,116,188,87.2,2,1
289,11,102,0,2,997.39,260,234,42,180,200.78,1,3
290,11,102,0,4,997.39,260,234,42,180,199.78,2,2
291,11,102,0,3,997.39,260,234,42,180,257.09,3,1
296,11,105,0,3,1084.2,200,185,40,180,13.6,1,4
297,11,105,0,1,1084.2,200,185,40,180,151.55,2,3
298,11,105,0,2,1084.2,200,185,40,180,189.09,3,2
299,11,105,0,4,1084.2,200,185,40,180,69.2,4,1
300,11,106,0,4,1198.4,292,194,32,193,269.84,1,3
301,11,106,0,2,1198.4,292,194,32,193,364.36,2,2
302,11,106,0,4,1198.4,292,194,32,193,213.35,3,1
303,11,107,0,3,2295.4,193,250,168,51,126.86,1,7
304,11,107,0,1,2295.4,193,250,168,51,207.05,2,6
305,11,107,0,2,2295.4,193,250,168,51,198.83,3,5
306,11,107,0,4,2295.4,193,250,168,51,243.89,4,4
307,11,107,0,3,2295.4,193,250,168,51,250.1,5,3
308,11,107,0,1,2295.4,193,250,168,51,314.2,6,2
309,11,107,0,3,2295.4,193,250,168,51,481.9,7,1
314,11,109,0,2,1109.8,274,237,26,216,159.88,1,2
315,11,109,0,4,1109.8,274,237,26,216,103.2,2,1
316,11,110,0,2,1615.1,231,268,193,159,207.95,1,4
317,11,110,0,4,1615.1,231,268,193,159,220.96,2,3
318,11,110,0,3,1615.1,231,268,193,159,297.05,3,2
319,11,110,0,1,1615.1,231,268,193,159,322.1,4,1
328,11,113,0,4,1300.5,297,260,82,254,304.99,1,3
329,11,113,0,2,1300.5,297,260,82,254,294.05,2,2
330,11,113,0,4,1300.5,297,260,82,254,46.2,3,1
356,11,126,0,2,1183.8,281,241,22,220,300.84,1,3
357,11,126,0,4,1183.8,281,241,22,220,413.18,2,2
358,11,126,0,3,1183.8,281,241,22,220,49.1,3,1
370,11,130,1,2,2419.7,200,279,197,31,131.92,1,5
371,11,130,1,3,2419.7,200,279,197,31,443.02,2,4
372,11,130,1,1,2419.7,200,279,197,31,320.9,3,3
373,11,130,1,2,2419.7,200,279,197,31,294,4,2
374,11,130,1,3,2419.7,200,279,197,31,299.8,5,1
378,11,132,0,3,1451,286,256,79,198,9.81,1,4
379,11,132,0,1,1451,286,256,79,198,267.02,2,3
380,11,132,0,2,1451,286,256,79,198,287.19,3,2
381,11,132,0,4,1451,286,256,79,198,460.6,4,1
418,11,149,1,1,1203.9,205,267,202,12,180.98,1,2
419,11,149,1,2,1203.9,205,267,202,12,198.8,2,1
423,11,151,1,1,818.68,220,247,150,50,146.78,1,3
424,11,151,1,3,818.68,220,247,150,50,250.09,2,2
425,11,151,1,4,818.68,220,247,150,50,58.62,3,1
427,11,156,0,4,2256,230,213,41,193,339.8,1,1
428,11,157,1,3,901.45,252,279,217,84,244.86,1,1
434,11,163,1,3,749.63,222,249,200,49,249.44,1,1
435,11,167,0,2,908.44,250,270,199,132,172.82,1,2
436,11,167,0,4,908.44,250,270,199,132,134.16,2,1
437,11,168,1,2,2735.8,220,250,202,20,132.91,1,5
438,11,168,1,4,2735.8,220,250,202,20,332,2,4
439,11,168,1,3,2735.8,220,250,202,20,235,3,3
440,11,168,1,1,2735.8,220,250,202,20,415.9,4,2
441,11,168,1,2,2735.8,220,250,202,20,382.4,5,1
444,11,170,0,2,1500.5,150,205,145,38,162.76,1,4
445,11,170,0,3,1500.5,150,205,145,38,420.1,2,3
446,11,170,0,1,1500.5,150,205,145,38,244,3,2
447,11,170,0,2,1500.5,150,205,145,38,3.2,4,1
448,11,171,0,4,1222.5,266,234,26,134,265.76,1,2
449,11,171,0,2,1222.5,266,234,26,134,7.1,2,1
452,11,173,0,4,1953.9,279,294,269,189,471.04,1,5
453,11,173,0,1,1953.9,279,294,269,189,12.2,2,4
454,11,173,0,2,1953.9,279,294,269,189,189.9,3,3
455,11,173,0,4,1953.9,279,294,269,189,250.1,4,2
456,11,173,0,3,1953.9,279,294,269,189,228.1,5,1
463,11,176,1,2,1695.6,250,280,212,49,225.86,1,4
464,11,176,1,4,1695.6,250,280,212,49,202.04,2,3
465,11,176,1,3,1695.6,250,280,212,49,240,3,2
466,11,176,1,1,1695.6,250,280,212,49,270.1,4,1
471,11,179,1,2,1625.1,250,284,240,50,276.98,1,4
472,11,179,1,4,1625.1,250,284,240,50,196.97,2,3
473,11,179,1,3,1625.1,250,284,240,50,292.07,3,2
474,11,179,1,1,1625.1,250,284,240,50,229.8,4,1
483,11,184,1,1,1351.4,207,271,187,5,227.92,1,3
484,11,184,1,3,1351.4,207,271,187,5,193.87,2,2
485,11,184,1,4,1351.4,207,271,187,5,346.9,3,1
495,11,193,0,2,1046.8,230,250,221,48,227.18,1,1
497,11,195,0,3,1440.2,289,260,33,186,162.78,1,4
498,11,195,0,4,1440.2,289,260,33,186,256.18,2,3
499,11,195,0,2,1440.2,289,260,33,186,286.9,3,2
500,11,195,0,4,1440.2,289,260,33,186,76.2,4,1
501,11,200,1,4,1225.5,247,296,124,30,244,1,2
502,11,200,1,3,1225.5,247,296,124,30,250.08,2,1
1,14,1,0,1,2942.5,297,260,82,254,287.77,1,6
2,14,1,0,2,2942.5,297,260,82,254,540.97,2,5
3,14,1,0,4,2942.5,297,260,82,254,304.8,3,4
4,14,1,0,2,2942.5,297,260,82,254,317.2,4,3
5,14,1,0,1,2942.5,297,260,82,254,319.8,5,2
6,14,1,0,2,2942.5,297,260,82,254,793.1,6,1
163,14,3,1,1,1877,260,300,250,50,207.92,1,5
1710,14,3,1,2,1877,260,300,250,50,235.19,2,4
185,14,3,1,4,1877,260,300,250,50,254.99,3,3
191,14,3,1,3,1877,260,300,250,50,281.06,4,2
202,14,3,1,1,1877,260,300,250,50,597,5,1
28,14,5,1,1,2679.8,234,260,180,42,232.78,1,6
292,14,5,1,2,2679.8,234,260,180,42,518.08,2,5
30,14,5,1,1,2679.8,234,260,180,42,114.8,3,4
31,14,5,1,4,2679.8,234,260,180,42,289.1,4,3
32,14,5,1,3,2679.8,234,260,180,42,322,5,2
3310,14,5,1,1,2679.8,234,260,180,42,884.8,6,1
341,14,6,0,1,3780.2,275,255,27,250,200.95,1,8
351,14,6,0,2,3780.2,275,255,27,250,285.98,2,7
361,14,6,0,4,3780.2,275,255,27,250,522.01,3,6
375,14,6,0,2,3780.2,275,255,27,250,247.9,4,5
382,14,6,0,1,3780.2,275,255,27,250,224.8,5,4
391,14,6,0,3,3780.2,275,255,27,250,761.9,6,3
401,14,6,0,4,3780.2,275,255,27,250,94,7,2
413,14,6,0,2,3780.2,275,255,27,250,838.4,8,1
62,14,9,1,1,3218.7,300,280,89,250,198.87,1,9
63,14,9,1,2,3218.7,300,280,89,250,336.34,2,8
64,14,9,1,4,3218.7,300,280,89,250,545.87,3,7
65,14,9,1,3,3218.7,300,280,89,250,333.1,4,6
66,14,9,1,1,3218.7,300,280,89,250,362,5,5
67,14,9,1,3,3218.7,300,280,89,250,522.2,6,4
68,14,9,1,2,3218.7,300,280,89,250,293,7,3
69,14,9,1,1,3218.7,300,280,89,250,231.1,8,2
70,14,9,1,3,3218.7,300,280,89,250,8.9,9,1
130,14,20,1,2,3643.7,294,279,189,269,496.14,1,7
131,14,20,1,1,3643.7,294,279,189,269,194.81,2,6
132,14,20,1,3,3643.7,294,279,189,269,208.8,3,5
133,14,20,1,4,3643.7,294,279,189,269,570.1,4,4
134,14,20,1,2,3643.7,294,279,189,269,824.1,5,3
135,14,20,1,3,3643.7,294,279,189,269,297,6,2
136,14,20,1,1,3643.7,294,279,189,269,225.2,7,1
144,14,22,1,1,2771.1,241,261,220,60,197.02,1,8
1451,14,22,1,2,2771.1,241,261,220,60,422.13,2,7
1461,14,22,1,1,2771.1,241,261,220,60,322.98,3,6
1471,14,22,1,2,2771.1,241,261,220,60,237.1,4,5
1481,14,22,1,4,2771.1,241,261,220,60,594,5,4
1491,14,22,1,2,2771.1,241,261,220,60,174.1,6,3
1501,14,22,1,1,2771.1,241,261,220,60,195.1,7,2
1511,14,22,1,3,2771.1,241,261,220,60,286.9,8,1
1681,14,25,1,1,2584.2,186,272,153,12,214.67,1,5
169,14,25,1,2,2584.2,186,272,153,12,1243.06,2,4
170,14,25,1,1,2584.2,186,272,153,12,237.9,3,3
171,14,25,1,3,2584.2,186,272,153,12,352,4,2
172,14,25,1,1,2584.2,186,272,153,12,237.2,5,1
173,14,26,0,1,2532.7,255,245,33,240,171.07,1,6
174,14,26,0,2,2532.7,255,245,33,240,204.17,2,5
175,14,26,0,4,2532.7,255,245,33,240,460.18,3,4
176,14,26,0,3,2532.7,255,245,33,240,239,4,3
177,14,26,0,1,2532.7,255,245,33,240,261.8,5,2
178,14,26,0,2,2532.7,255,245,33,240,856.1,6,1
179,14,27,0,2,2405.9,246,191,68,187,264.87,1,6
180,14,27,0,1,2405.9,246,191,68,187,269.07,2,5
1811,14,27,0,3,2405.9,246,191,68,187,326.02,3,4
1821,14,27,0,4,2405.9,246,191,68,187,340.9,4,3
1831,14,27,0,2,2405.9,246,191,68,187,646.9,5,2
1841,14,27,0,4,2405.9,246,191,68,187,67.8,6,1
1981,14,30,1,2,1805.4,229,239,144,32,464.88,1,4
1991,14,30,1,4,1805.4,229,239,144,32,218.96,2,3
2001,14,30,1,3,1805.4,229,239,144,32,241.2,3,2
201,14,30,1,1,1805.4,229,239,144,32,457.6,4,1
2131,14,34,1,2,2308.4,247,220,50,150,286.85,1,6
2141,14,34,1,1,2308.4,247,220,50,150,222.02,2,5
2151,14,34,1,3,2308.4,247,220,50,150,213.06,3,4
2161,14,34,1,4,2308.4,247,220,50,150,236.1,4,3
217,14,34,1,2,2308.4,247,220,50,150,468,5,2
218,14,34,1,1,2308.4,247,220,50,150,559.7,6,1
2291,14,37,0,1,2501.2,277,267,48,241,191.88,1,7
2301,14,37,0,2,2501.2,277,267,48,241,506.03,2,6
2311,14,37,0,4,2501.2,277,267,48,241,248,3,5
2321,14,37,0,3,2501.2,277,267,48,241,227,4,4
2331,14,37,0,1,2501.2,277,267,48,241,273.1,5,3
2341,14,37,0,4,2501.2,277,267,48,241,129.9,6,2
2351,14,37,0,2,2501.2,277,267,48,241,498.8,7,1
246,14,40,0,2,2124.6,250,230,48,221,408.01,1,5
247,14,40,0,1,2124.6,250,230,48,221,344.94,2,4
248,14,40,0,3,2124.6,250,230,48,221,203.1,3,3
249,14,40,0,4,2124.6,250,230,48,221,318,4,2
250,14,40,0,2,2124.6,250,230,48,221,371.5,5,1
265,14,43,0,2,2360.8,265,248,69,155,451.87,1,5
266,14,43,0,1,2360.8,265,248,69,155,243.81,2,4
267,14,43,0,3,2360.8,265,248,69,155,234.3,3,3
268,14,43,0,4,2360.8,265,248,69,155,434.2,4,2
269,14,43,0,2,2360.8,265,248,69,155,473.5,5,1
270,14,44,1,2,2545.3,256,278,250,69,258.92,1,7
271,14,44,1,1,2545.3,256,278,250,69,394.14,2,6
272,14,44,1,3,2545.3,256,278,250,69,600.03,3,5
273,14,44,1,1,2545.3,256,278,250,69,231.1,4,4
274,14,44,1,2,2545.3,256,278,250,69,241.2,5,3
275,14,44,1,4,2545.3,256,278,250,69,274.9,6,2
276,14,44,1,3,2545.3,256,278,250,69,209.4,7,1
3191,14,51,1,1,2573,231,268,193,159,380.04,1,5
320,14,51,1,2,2573,231,268,193,159,449.09,2,4
321,14,51,1,4,2573,231,268,193,159,299.1,3,3
322,14,51,1,3,2573,231,268,193,159,266,4,2
323,14,51,1,1,2573,231,268,193,159,869.9,5,1
3301,14,53,0,1,4715.8,286,256,79,198,1174.95,1,10
331,14,53,0,2,4715.8,286,256,79,198,286.1,2,9
332,14,53,0,4,4715.8,286,256,79,198,691.1,3,8
333,14,53,0,1,4715.8,286,256,79,198,278,4,7
334,14,53,0,2,4715.8,286,256,79,198,234.9,5,6
335,14,53,0,3,4715.8,286,256,79,198,287,6,5
336,14,53,0,4,4715.8,286,256,79,198,211.9,7,4
337,14,53,0,2,4715.8,286,256,79,198,525,8,3
338,14,53,0,4,4715.8,286,256,79,198,406.9,9,2
339,14,53,0,2,4715.8,286,256,79,198,58.1,10,1
366,14,58,0,2,2090.2,273,250,102,241,478.92,1,5
367,14,58,0,1,2090.2,273,250,102,241,272.96,2,4
368,14,58,0,3,2090.2,273,250,102,241,246.5,3,3
369,14,58,0,4,2090.2,273,250,102,241,294.5,4,2
3701,14,58,0,2,2090.2,273,250,102,241,361.1,5,1
384,14,61,1,1,2187.5,220,276,191,42,226.91,1,6
385,14,61,1,3,2187.5,220,276,191,42,208.16,2,5
386,14,61,1,2,2187.5,220,276,191,42,242.99,3,4
387,14,61,1,4,2187.5,220,276,191,42,383.9,4,3
388,14,61,1,3,2187.5,220,276,191,42,232.2,5,2
389,14,61,1,1,2187.5,220,276,191,42,317.7,6,1
409,14,65,0,1,1995.9,290,250,56,237,465.95,1,4
410,14,65,0,3,1995.9,290,250,56,237,358.3,2,3
411,14,65,0,4,1995.9,290,250,56,237,209,3,2
412,14,65,0,2,1995.9,290,250,56,237,725.8,4,1
4271,14,68,0,1,4698.5,173,227,160,41,172.91,1,9
4281,14,68,0,2,4698.5,173,227,160,41,410.19,2,8
429,14,68,0,4,4698.5,173,227,160,41,189.97,3,7
430,14,68,0,3,4698.5,173,227,160,41,1522.9,4,6
431,14,68,0,1,4698.5,173,227,160,41,266,5,5
432,14,68,0,2,4698.5,173,227,160,41,407,6,4
433,14,68,0,4,4698.5,173,227,160,41,483.1,7,3
4341,14,68,0,3,4698.5,173,227,160,41,465.2,8,2
4351,14,68,0,2,4698.5,173,227,160,41,156.6,9,1
4471,14,70,0,1,4689.9,273,290,179,117,157.32,1,10
4481,14,70,0,2,4689.9,273,290,179,117,404.06,2,9
4491,14,70,0,3,4689.9,273,290,179,117,283.05,3,8
450,14,70,0,4,4689.9,273,290,179,117,512.1,4,7
451,14,70,0,1,4689.9,273,290,179,117,489.9,5,6
4521,14,70,0,4,4689.9,273,290,179,117,180,6,5
4531,14,70,0,3,4689.9,273,290,179,117,609,7,4
4541,14,70,0,2,4689.9,273,290,179,117,415.4,8,3
4551,14,70,0,4,4689.9,273,290,179,117,467.4,9,2
4561,14,70,0,3,4689.9,273,290,179,117,106.4,10,1
5011,14,78,1,1,1966.6,260,295,240,61,450.84,1,5
5021,14,78,1,2,1966.6,260,295,240,61,189.12,2,4
503,14,78,1,4,1966.6,260,295,240,61,415.18,3,3
504,14,78,1,3,1966.6,260,295,240,61,271.9,4,2
505,14,78,1,1,1966.6,260,295,240,61,365.5,5,1
512,14,80,0,1,1821.3,289,240,28,152,195.87,1,6
513,14,80,0,2,1821.3,289,240,28,152,192.23,2,5
514,14,80,0,4,1821.3,289,240,28,152,292.06,3,4
515,14,80,0,2,1821.3,289,240,28,152,435.97,4,3
516,14,80,0,1,1821.3,289,240,28,152,191,5,2
517,14,80,0,3,1821.3,289,240,28,152,181.4,6,1
518,14,81,1,1,2982,267,282,250,50,759.06,1,7
519,14,81,1,2,2982,267,282,250,50,320.1,2,6
520,14,81,1,4,2982,267,282,250,50,177.2,3,5
521,14,81,1,3,2982,267,282,250,50,651.1,4,4
522,14,81,1,1,2982,267,282,250,50,397.1,5,3
523,14,81,1,2,2982,267,282,250,50,226.3,6,2
524,14,81,1,4,2982,267,282,250,50,31.4,7,1
525,14,82,1,1,2365.4,222,249,200,49,231.89,1,5
526,14,82,1,2,2365.4,222,249,200,49,1008.04,2,4
527,14,82,1,4,2365.4,222,249,200,49,284.2,3,3
528,14,82,1,3,2365.4,222,249,200,49,226,4,2
529,14,82,1,1,2365.4,222,249,200,49,288.4,5,1
534,14,84,0,1,3196.6,259,230,54,199,346.96,1,8
535,14,84,0,2,3196.6,259,230,54,199,390.71,2,7
536,14,84,0,4,3196.6,259,230,54,199,294.09,3,6
537,14,84,0,3,3196.6,259,230,54,199,349.9,4,5
538,14,84,0,4,3196.6,259,230,54,199,231,5,4
539,14,84,0,2,3196.6,259,230,54,199,511,6,3
540,14,84,0,4,3196.6,259,230,54,199,382.9,7,2
541,14,84,0,2,3196.6,259,230,54,199,371.1,8,1
542,14,85,0,2,2160,300,260,30,250,987.92,1,4
543,14,85,0,4,2160,300,260,30,250,510.1,2,3
544,14,85,0,3,2160,300,260,30,250,182.9,3,2
545,14,85,0,1,2160,300,260,30,250,94.1,4,1
555,14,88,1,2,4310.9,226,294,134,37,253.08,1,11
556,14,88,1,1,4310.9,226,294,134,37,421.07,2,10
557,14,88,1,3,4310.9,226,294,134,37,237.18,3,9
558,14,88,1,4,4310.9,226,294,134,37,187,4,8
559,14,88,1,2,4310.9,226,294,134,37,556.1,5,7
560,14,88,1,4,4310.9,226,294,134,37,372.1,6,6
561,14,88,1,2,4310.9,226,294,134,37,410,7,5
562,14,88,1,1,4310.9,226,294,134,37,518.1,8,4
563,14,88,1,3,4310.9,226,294,134,37,260.9,9,3
564,14,88,1,4,4310.9,226,294,134,37,259.1,10,2
565,14,88,1,1,4310.9,226,294,134,37,363.2,11,1
566,14,89,1,2,3458.8,234,266,134,26,311.82,1,8
567,14,89,1,1,3458.8,234,266,134,26,264.93,2,7
568,14,89,1,3,3458.8,234,266,134,26,549.89,3,6
569,14,89,1,2,3458.8,234,266,134,26,440.9,4,5
570,14,89,1,4,3458.8,234,266,134,26,371.1,5,4
571,14,89,1,2,3458.8,234,266,134,26,282,6,3
572,14,89,1,1,3458.8,234,266,134,26,418.5,7,2
573,14,89,1,3,3458.8,234,266,134,26,332,8,1
574,14,90,1,1,4139,130,142,95,77,163.91,1,10
575,14,90,1,2,4139,130,142,95,77,347.25,2,9
576,14,90,1,4,4139,130,142,95,77,499.99,3,8
577,14,90,1,3,4139,130,142,95,77,345,4,7
578,14,90,1,1,4139,130,142,95,77,235.1,5,6
579,14,90,1,2,4139,130,142,95,77,362.2,6,5
580,14,90,1,3,4139,130,142,95,77,289,7,4
581,14,90,1,4,4139,130,142,95,77,523.2,8,3
582,14,90,1,3,4139,130,142,95,77,252.1,9,2
583,14,90,1,1,4139,130,142,95,77,301.1,10,1
584,14,91,1,1,4127.5,241,281,220,22,239,1,9
585,14,91,1,2,4127.5,241,281,220,22,496,2,8
586,14,91,1,3,4127.5,241,281,220,22,255,3,7
587,14,91,1,1,4127.5,241,281,220,22,567.2,4,6
588,14,91,1,3,4127.5,241,281,220,22,619.2,5,5
589,14,91,1,4,4127.5,241,281,220,22,5.9,6,4
590,14,91,1,2,4127.5,241,281,220,22,468.1,7,3
591,14,91,1,4,4127.5,241,281,220,22,234.1,8,2
592,14,91,1,1,4127.5,241,281,220,22,179,9,1
628,14,99,1,2,2268.3,260,286,137,55,199.97,1,7
629,14,99,1,1,2268.3,260,286,137,55,170.88,2,6
630,14,99,1,3,2268.3,260,286,137,55,258.09,3,5
631,14,99,1,4,2268.3,260,286,137,55,463.1,4,4
632,14,99,1,2,2268.3,260,286,137,55,254.2,5,3
633,14,99,1,1,2268.3,260,286,137,55,368.9,6,2
634,14,99,1,2,2268.3,260,286,137,55,167,7,1
673,14,110,1,1,1605.8,247,296,124,30,230.197,1,5
674,14,110,1,2,1605.8,247,296,124,30,309.04,2,4
675,14,110,1,4,1605.8,247,296,124,30,343.9,3,3
676,14,110,1,3,1605.8,247,296,124,30,217.99,4,2
677,14,110,1,1,1605.8,247,296,124,30,403.5,5,1
682,14,112,0,1,3199.2,250,270,199,132,287.73,1,9
683,14,112,0,3,3199.2,250,270,199,132,1.02,2,8
684,14,112,0,4,3199.2,250,270,199,132,9.14,3,7
685,14,112,0,2,3199.2,250,270,199,132,457.13,4,6
686,14,112,0,4,3199.2,250,270,199,132,265,5,5
687,14,112,0,3,3199.2,250,270,199,132,337.1,6,4
688,14,112,0,1,3199.2,250,270,199,132,503,7,3
689,14,112,0,2,3199.2,250,270,199,132,568,8,2
690,14,112,0,4,3199.2,250,270,199,132,257.4,9,1
695,14,114,0,1,2091.9,271,207,5,187,322.91,1,6
696,14,114,0,3,2091.9,271,207,5,187,257.13,2,5
697,14,114,0,4,2091.9,271,207,5,187,149,3,4
698,14,114,0,2,2091.9,271,207,5,187,351.8,4,3
699,14,114,0,4,2091.9,271,207,5,187,291,5,2
700,14,114,0,2,2091.9,271,207,5,187,210.3,6,1
724,14,119,0,1,3227.3,279,252,84,217,537.88,1,9
725,14,119,0,3,3227.3,279,252,84,217,361.04,2,8
726,14,119,0,4,3227.3,279,252,84,217,296,3,7
727,14,119,0,2,3227.3,279,252,84,217,554.2,4,6
728,14,119,0,4,3227.3,279,252,84,217,198,5,5
729,14,119,0,1,3227.3,279,252,84,217,230.1,6,4
730,14,119,0,3,3227.3,279,252,84,217,223.8,7,3
731,14,119,0,4,3227.3,279,252,84,217,322,8,2
732,14,119,0,2,3227.3,279,252,84,217,98.2,9,1
763,14,124,1,1,2087,205,267,202,12,182.97,1,5
764,14,124,1,2,2087,205,267,202,12,572.06,2,4
765,14,124,1,4,2087,205,267,202,12,473.9,3,3
766,14,124,1,1,2087,205,267,202,12,1,4,2
767,14,124,1,3,2087,205,267,202,12,190.1,5,1
778,14,127,0,2,1855.9,274,237,26,216,374.94,1,5
779,14,127,0,4,1855.9,274,237,26,216,495.01,2,4
780,14,127,0,2,1855.9,274,237,26,216,366,3,3
781,14,127,0,1,1855.9,274,237,26,216,202.4,4,2
782,14,127,0,3,1855.9,274,237,26,216,106.1,5,1
789,14,129,1,1,2367.8,241,252,180,97,232.31,1,5
790,14,129,1,3,2367.8,241,252,180,97,323.15,2,4
791,14,129,1,4,2367.8,241,252,180,97,538.2,3,3
792,14,129,1,2,2367.8,241,252,180,97,133.3,4,2
793,14,129,1,1,2367.8,241,252,180,97,306.8,5,1
799,14,131,0,1,2868.7,270,250,105,234,239.94,1,6
800,14,131,0,2,2868.7,270,250,105,234,346.13,2,5
801,14,131,0,3,2868.7,270,250,105,234,385.11,3,4
802,14,131,0,4,2868.7,270,250,105,234,243.1,4,3
803,14,131,0,2,2868.7,270,250,105,234,486.1,5,2
804,14,131,0,4,2868.7,270,250,105,234,643.2,6,1
811,14,133,1,1,3593.5,216,261,183,31,276.84,1,11
812,14,133,1,2,3593.5,216,261,183,31,179.97,2,10
813,14,133,1,3,3593.5,216,261,183,31,550.08,3,9
814,14,133,1,1,3593.5,216,261,183,31,462,4,8
815,14,133,1,2,3593.5,216,261,183,31,316,5,7
816,14,133,1,4,3593.5,216,261,183,31,241.3,6,6
817,14,133,1,2,3593.5,216,261,183,31,235,7,5
818,14,133,1,1,3593.5,216,261,183,31,205,8,4
819,14,133,1,2,3593.5,216,261,183,31,173,9,3
820,14,133,1,4,3593.5,216,261,183,31,337.9,10,2
821,14,133,1,3,3593.5,216,261,183,31,137,11,1
830,14,135,0,1,2221,230,213,41,193,196.8,1,6
831,14,135,0,2,2221,230,213,41,193,466.02,2,5
832,14,135,0,4,2221,230,213,41,193,231.17,3,4
833,14,135,0,3,2221,230,213,41,193,295.1,4,3
834,14,135,0,4,2221,230,213,41,193,342,5,2
835,14,135,0,2,2221,230,213,41,193,360,6,1
856,14,140,1,1,1982.5,200,279,197,31,930.43,1,4
857,14,140,1,3,1982.5,200,279,197,31,444.1,2,3
858,14,140,1,2,1982.5,200,279,197,31,293.1,3,2
859,14,140,1,4,1982.5,200,279,197,31,24.8,4,1
885,14,146,0,1,1927.2,200,167,62,143,303.12,1,4
886,14,146,0,3,1927.2,200,167,62,143,418,2,3
887,14,146,0,4,1927.2,200,167,62,143,284,3,2
888,14,146,0,2,1927.2,200,167,62,143,468.5,4,1
889,14,147,0,1,1586.2,280,250,49,212,373.05,1,4
890,14,147,0,3,1586.2,280,250,49,212,292.97,2,3
891,14,147,0,4,1586.2,280,250,49,212,298.16,3,2
892,14,147,0,2,1586.2,280,250,49,212,317.5,4,1
893,14,148,0,1,1624.7,250,193,51,168,430,1,5
894,14,148,0,2,1624.7,250,193,51,168,183.06,2,4
895,14,148,0,3,1624.7,250,193,51,168,229.94,3,3
896,14,148,0,4,1624.7,250,193,51,168,195.6,4,2
897,14,148,0,2,1624.7,250,193,51,168,301.6,5,1
915,14,152,1,1,2218.3,205,150,38,145,317.86,1,8
916,14,152,1,3,2218.3,205,150,38,145,194.84,2,7
917,14,152,1,4,2218.3,205,150,38,145,176.02,3,6
918,14,152,1,2,2218.3,205,150,38,145,399.11,4,5
919,14,152,1,4,2218.3,205,150,38,145,213.8,5,4
920,14,152,1,1,2218.3,205,150,38,145,303.9,6,3
921,14,152,1,3,2218.3,205,150,38,145,264.9,7,2
922,14,152,1,1,2218.3,205,150,38,145,23.3,8,1
927,14,154,0,2,1757,254,211,80,199,216.88,1,5
928,14,154,0,1,1757,254,211,80,199,272.01,2,4
929,14,154,0,3,1757,254,211,80,199,232.02,3,3
930,14,154,0,4,1757,254,211,80,199,295.2,4,2
931,14,154,0,2,1757,254,211,80,199,424.3,5,1
950,14,159,1,1,2804,260,289,186,33,412.94,1,7
951,14,159,1,3,2804,260,289,186,33,507.14,2,6
952,14,159,1,1,2804,260,289,186,33,240.9,3,5
953,14,159,1,2,2804,260,289,186,33,530.2,4,4
954,14,159,1,4,2804,260,289,186,33,403.3,5,3
955,14,159,1,3,2804,260,289,186,33,188,6,2
956,14,159,1,1,2804,260,289,186,33,90.5,7,1
980,14,165,0,1,1727.5,280,240,24,209,198.19,1,4
981,14,165,0,2,1727.5,280,240,24,209,392.8,2,3
982,14,165,0,4,1727.5,280,240,24,209,607.1,3,2
983,14,165,0,2,1727.5,280,240,24,209,241,4,1
1010,14,170,0,2,1838.1,250,220,20,202,436.93,1,5
1011,14,170,0,1,1838.1,250,220,20,202,265.95,2,4
1012,14,170,0,3,1838.1,250,220,20,202,236.93,3,3
1013,14,170,0,4,1838.1,250,220,20,202,395,4,2
1014,14,170,0,2,1838.1,250,220,20,202,188.7,5,1
1022,14,172,1,2,2719.2,236,271,167,58,413.93,1,6
1023,14,172,1,4,2719.2,236,271,167,58,346.91,2,5
1024,14,172,1,2,2719.2,236,271,167,58,415.2,3,4
1025,14,172,1,1,2719.2,236,271,167,58,428,4,3
1026,14,172,1,3,2719.2,236,271,167,58,528,5,2
1027,14,172,1,1,2719.2,236,271,167,58,262.1,6,1
1028,14,173,0,1,2392.4,284,250,50,240,282.84,1,6
1029,14,173,0,2,2392.4,284,250,50,240,272.08,2,5
1030,14,173,0,1,2392.4,284,250,50,240,370.1,3,4
1031,14,173,0,3,2392.4,284,250,50,240,278.9,4,3
1032,14,173,0,4,2392.4,284,250,50,240,229,5,2
1033,14,173,0,2,2392.4,284,250,50,240,375.8,6,1
1043,14,175,0,2,1630.7,200,185,40,180,226.37,1,3
1044,14,175,0,4,1630.7,200,185,40,180,498.23,2,2
1045,14,175,0,3,1630.7,200,185,40,180,306.8,3,1
1049,14,177,0,1,1146.2,277,264,30,136,280.94,1,4
1050,14,177,0,2,1146.2,277,264,30,136,240.94,2,3
1051,14,177,0,4,1146.2,277,264,30,136,265.12,3,2
1052,14,177,0,2,1146.2,277,264,30,136,50,4,1
1053,14,178,1,1,5544,246,289,188,116,292.91,1,12
1054,14,178,1,2,5544,246,289,188,116,550.48,2,11
1055,14,178,1,4,5544,246,289,188,116,234,3,10
1056,14,178,1,2,5544,246,289,188,116,274.6,4,9
1057,14,178,1,1,5544,246,289,188,116,380,5,8
1058,14,178,1,3,5544,246,289,188,116,550.1,6,7
1059,14,178,1,4,5544,246,289,188,116,574.2,7,6
1060,14,178,1,2,5544,246,289,188,116,657.1,8,5
1061,14,178,1,4,5544,246,289,188,116,304.1,9,4
1062,14,178,1,3,5544,246,289,188,116,301,10,3
1063,14,178,1,1,5544,246,289,188,116,517,11,2
1064,14,178,1,3,5544,246,289,188,116,205.8,12,1
1065,14,179,0,1,1279.5,291,203,50,174,377.94,1,4
1066,14,179,0,3,1279.5,291,203,50,174,229.88,2,3
1067,14,179,0,4,1279.5,291,203,50,174,183.05,3,2
1068,14,179,0,2,1279.5,291,203,50,174,155.8,4,1
1103,14,186,0,1,1517,287,232,20,214,449.17,1,3
1104,14,186,0,3,1517,287,232,20,214,293.04,2,2
1105,14,186,0,2,1517,287,232,20,214,304,3,1
1114,14,189,1,1,1685,262,290,258,111,244.89,1,6
1115,14,189,1,2,1685,262,290,258,111,251.95,2,5
1116,14,189,1,3,1685,262,290,258,111,194.92,3,4
1117,14,189,1,4,1685,262,290,258,111,323,4,3
1118,14,189,1,3,1685,262,290,258,111,164,5,2
1119,14,189,1,1,1685,262,290,258,111,149.4,6,1
1141,14,193,0,1,2572,267,200,30,154,543.05,1,6
1142,14,193,0,3,2572,267,200,30,154,237.04,2,5
1143,14,193,0,4,2572,267,200,30,154,285,3,4
1144,14,193,0,2,2572,267,200,30,154,679,4,3
1145,14,193,0,4,2572,267,200,30,154,420.6,5,2
1146,14,193,0,2,2572,267,200,30,154,57.5,6,1
1152,14,195,0,1,2544.8,281,250,62,171,951.74,1,4
1153,14,195,0,3,2544.8,281,250,62,171,626.2,2,3
1154,14,195,0,4,2544.8,281,250,62,171,218,3,2
1155,14,195,0,2,2544.8,281,250,62,171,435.5,4,1
1156,14,196,1,1,1798.8,194,292,193,32,336.97,1,5
1157,14,196,1,2,1798.8,194,292,193,32,413.2,2,4
1158,14,196,1,4,1798.8,194,292,193,32,169.9,3,3
1159,14,196,1,3,1798.8,194,292,193,32,201.7,4,2
1160,14,196,1,1,1798.8,194,292,193,32,260.3,5,1
1161,14,197,0,1,5537.4,235,200,50,155,200.87,1,11
1162,14,197,0,2,5537.4,235,200,50,155,315.08,2,10
1163,14,197,0,4,5537.4,235,200,50,155,553.02,3,9
1164,14,197,0,2,5537.4,235,200,50,155,272.8,4,8
1165,14,197,0,1,5537.4,235,200,50,155,817,5,7
1166,14,197,0,3,5537.4,235,200,50,155,344.1,6,6
1167,14,197,0,4,5537.4,235,200,50,155,1161.1,7,5
1168,14,197,0,2,5537.4,235,200,50,155,507.1,8,4
1169,14,197,0,1,5537.4,235,200,50,155,286.1,9,3
1170,14,197,0,3,5537.4,235,200,50,155,338.3,10,2
1171,14,197,0,4,5537.4,235,200,50,155,284.2,11,1
601,15,9,1,1,2865.8,272,186,12,153,250.92,1,9
61,15,9,1,2,2865.8,272,186,12,153,224.2,2,8
621,15,9,1,4,2865.8,272,186,12,153,240.8,3,7
639,15,9,1,2,2865.8,272,186,12,153,257.1,4,6
641,15,9,1,1,2865.8,272,186,12,153,404.2,5,5
651,15,9,1,2,2865.8,272,186,12,153,250.3,6,4
661,15,9,1,4,2865.8,272,186,12,153,244.9,7,3
6710,15,9,1,3,2865.8,272,186,12,153,212,8,2
681,15,9,1,1,2865.8,272,186,12,153,47.8,9,1
6910,15,10,0,1,4721.2,230,213,41,193,198.73,1,14
701,15,10,0,2,4721.2,230,213,41,193,372.93,2,13
71,15,10,0,1,4721.2,230,213,41,193,213.08,3,12
72,15,10,0,2,4721.2,230,213,41,193,455.2,4,11
73,15,10,0,1,4721.2,230,213,41,193,265.1,5,10
74,15,10,0,3,4721.2,230,213,41,193,138.1,6,9
75,15,10,0,4,4721.2,230,213,41,193,288.2,7,8
768,15,10,0,2,4721.2,230,213,41,193,202.1,8,7
771,15,10,0,1,4721.2,230,213,41,193,388,9,6
783,15,10,0,2,4721.2,230,213,41,193,306.1,10,5
794,15,10,0,4,4721.2,230,213,41,193,255,11,4
805,15,10,0,1,4721.2,230,213,41,193,173.1,12,3
8110,15,10,0,2,4721.2,230,213,41,193,193,13,2
82,15,10,0,4,4721.2,230,213,41,193,292,14,1
92,15,12,1,1,12727.6,281,241,22,220,172.87,1,25
93,15,12,1,2,12727.6,281,241,22,220,359.03,2,24
94,15,12,1,4,12727.6,281,241,22,220,240.7,3,23
95,15,12,1,2,12727.6,281,241,22,220,248,4,22
96,15,12,1,1,12727.6,281,241,22,220,371,5,21
97,15,12,1,2,12727.6,281,241,22,220,329.9,6,20
98,15,12,1,4,12727.6,281,241,22,220,190.5,7,19
99,15,12,1,3,12727.6,281,241,22,220,549.7,8,18
100,15,12,1,1,12727.6,281,241,22,220,261.8,9,17
101,15,12,1,4,12727.6,281,241,22,220,418.2,10,16
102,15,12,1,2,12727.6,281,241,22,220,958.1,11,15
103,15,12,1,1,12727.6,281,241,22,220,474.4,12,14
1041,15,12,1,3,12727.6,281,241,22,220,228.8,13,13
10510,15,12,1,4,12727.6,281,241,22,220,343,14,12
10610,15,12,1,2,12727.6,281,241,22,220,345.9,15,11
1071,15,12,1,4,12727.6,281,241,22,220,336.1,16,10
1081,15,12,1,3,12727.6,281,241,22,220,281.4,17,9
1094,15,12,1,4,12727.6,281,241,22,220,632,18,8
1108,15,12,1,1,12727.6,281,241,22,220,563,19,7
111,15,12,1,3,12727.6,281,241,22,220,509,20,6
112,15,12,1,4,12727.6,281,241,22,220,812.8,21,5
113,15,12,1,1,12727.6,281,241,22,220,946.2,22,4
114,15,12,1,2,12727.6,281,241,22,220,837,23,3
115,15,12,1,3,12727.6,281,241,22,220,194,24,2
116,15,12,1,1,12727.6,281,241,22,220,230.5,25,1
125,15,14,1,1,1710.7,259,230,54,199,167.98,1,5
126,15,14,1,2,1710.7,259,230,54,199,418,2,4
127,15,14,1,1,1710.7,259,230,54,199,231.06,3,3
128,15,14,1,3,1710.7,259,230,54,199,185.9,4,2
129,15,14,1,4,1710.7,259,230,54,199,310.9,5,1
1301,15,15,1,1,2402.1,252,241,97,180,192.02,1,8
1311,15,15,1,2,2402.1,252,241,97,180,247.05,2,7
1321,15,15,1,1,2402.1,252,241,97,180,389.07,3,6
1331,15,15,1,2,2402.1,252,241,97,180,350.1,4,5
1341,15,15,1,4,2402.1,252,241,97,180,216.8,5,4
1351,15,15,1,3,2402.1,252,241,97,180,219,6,3
1361,15,15,1,4,2402.1,252,241,97,180,190,7,2
137,15,15,1,1,2402.1,252,241,97,180,211.7,8,1
138,15,16,0,1,1977.4,207,271,187,5,175.82,1,6
139,15,16,0,2,1977.4,207,271,187,5,262.12,2,5
140,15,16,0,4,1977.4,207,271,187,5,209.21,3,4
141,15,16,0,3,1977.4,207,271,187,5,395.89,4,3
142,15,16,0,1,1977.4,207,271,187,5,207,5,2
143,15,16,0,2,1977.4,207,271,187,5,413.5,6,1
1441,15,17,0,1,2175.6,167,200,143,62,180.89,1,7
1454,15,17,0,2,2175.6,167,200,143,62,308.9,2,6
1462,15,17,0,1,2175.6,167,200,143,62,486.05,3,5
14710,15,17,0,2,2175.6,167,200,143,62,313,4,4
14810,15,17,0,4,2175.6,167,200,143,62,191.1,5,3
14910,15,17,0,3,2175.6,167,200,143,62,263.9,6,2
1509,15,17,0,2,2175.6,167,200,143,62,73.5,7,1
1591,15,19,0,1,1663,200,279,197,31,151.86,1,6
1601,15,19,0,2,1663,200,279,197,31,328.93,2,5
1611,15,19,0,4,1663,200,279,197,31,122.08,3,4
1621,15,19,0,3,1663,200,279,197,31,170,4,3
1633,15,19,0,1,1663,200,279,197,31,157,5,2
164,15,19,0,2,1663,200,279,197,31,251.5,6,1
1691,15,21,1,2,2367,246,191,68,187,194,1,6
1701,15,21,1,4,2367,246,191,68,187,359.12,2,5
1711,15,21,1,1,2367,246,191,68,187,150.2,3,4
1721,15,21,1,2,2367,246,191,68,187,398.9,4,3
1735,15,21,1,1,2367,246,191,68,187,199.1,5,2
1741,15,21,1,2,2367,246,191,68,187,321.6,6,1
2002,15,24,1,2,13261,142,130,77,95,304.02,1,18
2011,15,24,1,1,13261,142,130,77,95,241.16,2,17
2021,15,24,1,4,13261,142,130,77,95,245.9,3,16
203,15,24,1,3,13261,142,130,77,95,287.9,4,15
2041,15,24,1,4,13261,142,130,77,95,446.4,5,14
2051,15,24,1,3,13261,142,130,77,95,400,6,13
2061,15,24,1,4,13261,142,130,77,95,472.1,7,12
2071,15,24,1,1,13261,142,130,77,95,370,8,11
208,15,24,1,2,13261,142,130,77,95,599,9,10
209,15,24,1,1,13261,142,130,77,95,6424.9,10,9
210,15,24,1,3,13261,142,130,77,95,152.1,11,8
211,15,24,1,4,13261,142,130,77,95,338.2,12,7
212,15,24,1,3,13261,142,130,77,95,3.9,13,6
2132,15,24,1,2,13261,142,130,77,95,12.3,14,5
2142,15,24,1,4,13261,142,130,77,95,190.2,15,4
2152,15,24,1,2,13261,142,130,77,95,505,16,3
2162,15,24,1,1,13261,142,130,77,95,505.1,17,2
2171,15,24,1,2,13261,142,130,77,95,173.3,18,1
222,15,26,0,1,1628.7,200,267,154,30,128,1,6
223,15,26,0,2,1628.7,200,267,154,30,193.9,2,5
224,15,26,0,4,1628.7,200,267,154,30,303.98,3,4
225,15,26,0,3,1628.7,200,267,154,30,187,4,3
226,15,26,0,2,1628.7,200,267,154,30,252.9,5,2
2271,15,26,0,1,1628.7,200,267,154,30,87.3,6,1
2342,15,28,0,1,1648.2,237,274,216,26,152.98,1,6
2352,15,28,0,2,1648.2,237,274,216,26,262.09,2,5
2361,15,28,0,1,1648.2,237,274,216,26,228.98,3,4
2371,15,28,0,2,1648.2,237,274,216,26,173.07,4,3
2381,15,28,0,4,1648.2,237,274,216,26,205,5,2
239,15,28,0,1,1648.2,237,274,216,26,181.4,6,1
281,15,36,1,1,1623.8,289,260,33,186,173.9,1,6
282,15,36,1,2,1623.8,289,260,33,186,257.09,2,5
283,15,36,1,3,1623.8,289,260,33,186,148.99,3,4
2841,15,36,1,4,1623.8,289,260,33,186,225.87,4,3
2851,15,36,1,2,1623.8,289,260,33,186,201,5,2
2861,15,36,1,1,1623.8,289,260,33,186,307.1,6,1
3221,15,42,1,1,8586.9,279,294,269,189,155.92,1,22
3231,15,42,1,2,8586.9,279,294,269,189,352.13,2,21
324,15,42,1,1,8586.9,279,294,269,189,171.01,3,20
325,15,42,1,4,8586.9,279,294,269,189,211.09,4,19
326,15,42,1,3,8586.9,279,294,269,189,6,5,18
327,15,42,1,4,8586.9,279,294,269,189,536.9,6,17
3281,15,42,1,2,8586.9,279,294,269,189,318.1,7,16
3291,15,42,1,1,8586.9,279,294,269,189,234.9,8,15
3302,15,42,1,2,8586.9,279,294,269,189,551,9,14
3311,15,42,1,1,8586.9,279,294,269,189,701.1,10,13
3321,15,42,1,3,8586.9,279,294,269,189,234.1,11,12
3331,15,42,1,4,8586.9,279,294,269,189,233.1,12,11
3341,15,42,1,2,8586.9,279,294,269,189,563.8,13,10
3351,15,42,1,1,8586.9,279,294,269,189,364.2,14,9
3361,15,42,1,3,8586.9,279,294,269,189,166,15,8
3371,15,42,1,4,8586.9,279,294,269,189,461.2,16,7
3381,15,42,1,3,8586.9,279,294,269,189,11,17,6
3391,15,42,1,1,8586.9,279,294,269,189,363.2,18,5
340,15,42,1,2,8586.9,279,294,269,189,488,19,4
3411,15,42,1,4,8586.9,279,294,269,189,441.2,20,3
342,15,42,1,3,8586.9,279,294,269,189,13.1,21,2
343,15,42,1,1,8586.9,279,294,269,189,65.3,22,1
3511,15,44,1,1,2397,271,236,58,167,293.11,1,7
352,15,44,1,2,2397,271,236,58,167,170.14,2,6
353,15,44,1,4,2397,271,236,58,167,257.08,3,5
354,15,44,1,3,2397,271,236,58,167,283.93,4,4
355,15,44,1,2,2397,271,236,58,167,181,5,3
3561,15,44,1,1,2397,271,236,58,167,427.9,6,2
3571,15,44,1,4,2397,271,236,58,167,489.1,7,1
3741,15,46,0,1,2081.9,252,279,217,84,167.05,1,7
3751,15,46,0,2,2081.9,252,279,217,84,305.03,2,6
376,15,46,0,1,2081.9,252,279,217,84,360.19,3,5
377,15,46,0,2,2081.9,252,279,217,84,199.8,4,4
3781,15,46,0,4,2081.9,252,279,217,84,183.9,5,3
3791,15,46,0,3,2081.9,252,279,217,84,186.9,6,2
3801,15,46,0,2,2081.9,252,279,217,84,337,7,1
3881,15,48,0,2,1329.3,203,291,174,50,160.77,1,6
3891,15,48,0,1,1329.3,203,291,174,50,159.98,2,5
390,15,48,0,4,1329.3,203,291,174,50,192.87,3,4
3911,15,48,0,3,1329.3,203,291,174,50,190.05,4,3
392,15,48,0,1,1329.3,203,291,174,50,148.8,5,2
393,15,48,0,2,1329.3,203,291,174,50,43.2,6,1
4011,15,50,0,1,1532.8,250,281,171,62,169.89,1,6
402,15,50,0,2,1532.8,250,281,171,62,216.02,2,5
403,15,50,0,1,1532.8,250,281,171,62,250.03,3,4
404,15,50,0,3,1532.8,250,281,171,62,188.04,4,3
405,15,50,0,4,1532.8,250,281,171,62,284.2,5,2
406,15,50,0,2,1532.8,250,281,171,62,145,6,1
407,15,51,1,1,1622.9,205,150,38,145,198.01,1,7
408,15,51,1,2,1622.9,205,150,38,145,182.17,2,6
4091,15,51,1,1,1622.9,205,150,38,145,134.13,3,5
4101,15,51,1,3,1622.9,205,150,38,145,184.01,4,4
4111,15,51,1,4,1622.9,205,150,38,145,195.9,5,3
4121,15,51,1,1,1622.9,205,150,38,145,193.1,6,2
4131,15,51,1,2,1622.9,205,150,38,145,169,7,1
4381,15,56,0,1,1998.3,260,286,137,55,164.06,1,8
4391,15,56,0,2,1998.3,260,286,137,55,189.04,2,7
4401,15,56,0,1,1998.3,260,286,137,55,156.03,3,6
4411,15,56,0,3,1998.3,260,286,137,55,161.12,4,5
442,15,56,0,4,1998.3,260,286,137,55,239.9,5,4
443,15,56,0,2,1998.3,260,286,137,55,212.1,6,3
4441,15,56,0,1,1998.3,260,286,137,55,196.2,7,2
4451,15,56,0,2,1998.3,260,286,137,55,215.1,8,1
467,15,61,0,1,3472.6,267,282,250,50,233.91,1,11
468,15,61,0,2,3472.6,267,282,250,50,172.06,2,10
469,15,61,0,4,3472.6,267,282,250,50,249.26,3,9
470,15,61,0,3,3472.6,267,282,250,50,172.97,4,8
4711,15,61,0,1,3472.6,267,282,250,50,166.9,5,7
4721,15,61,0,2,3472.6,267,282,250,50,489.9,6,6
4731,15,61,0,4,3472.6,267,282,250,50,399.1,7,5
4741,15,61,0,3,3472.6,267,282,250,50,296,8,4
475,15,61,0,4,3472.6,267,282,250,50,360.9,9,3
476,15,61,0,2,3472.6,267,282,250,50,425,10,2
477,15,61,0,1,3472.6,267,282,250,50,72.8,11,1
488,15,63,1,1,1718.7,290,273,117,179,183.84,1,6
489,15,63,1,2,1718.7,290,273,117,179,230.89,2,5
490,15,63,1,3,1718.7,290,273,117,179,187.18,3,4
491,15,63,1,4,1718.7,290,273,117,179,244,4,3
492,15,63,1,2,1718.7,290,273,117,179,203.8,5,2
493,15,63,1,1,1718.7,290,273,117,179,324.7,6,1
494,15,64,1,1,2329.9,297,260,82,254,33.65,1,7
4951,15,64,1,2,2329.9,297,260,82,254,247.18,2,6
496,15,64,1,4,2329.9,297,260,82,254,432.05,3,5
4971,15,64,1,3,2329.9,297,260,82,254,169.1,4,4
4981,15,64,1,2,2329.9,297,260,82,254,354.9,5,3
4991,15,64,1,1,2329.9,297,260,82,254,264.1,6,2
5001,15,64,1,3,2329.9,297,260,82,254,286.9,7,1
5351,15,69,0,3,3966.2,250,280,212,49,187.87,1,8
5361,15,69,0,1,3966.2,250,280,212,49,191.07,2,7
5371,15,69,0,2,3966.2,250,280,212,49,245.95,3,6
5381,15,69,0,1,3966.2,250,280,212,49,415,4,5
5391,15,69,0,2,3966.2,250,280,212,49,189.1,5,4
5401,15,69,0,4,3966.2,250,280,212,49,246.9,6,3
5411,15,69,0,3,3966.2,250,280,212,49,544,7,2
5421,15,69,0,2,3966.2,250,280,212,49,1400.3,8,1
5561,15,72,0,1,2000.4,260,295,240,61,161.91,1,5
5571,15,72,0,2,2000.4,260,295,240,61,242.37,2,4
5581,15,72,0,4,2000.4,260,295,240,61,349.8,3,3
5591,15,72,0,2,2000.4,260,295,240,61,368.3,4,2
5601,15,72,0,1,2000.4,260,295,240,61,250.1,5,1
622,15,80,1,2,6170.8,240,280,209,24,15.48,1,17
623,15,80,1,4,6170.8,240,280,209,24,191.73,2,16
624,15,80,1,3,6170.8,240,280,209,24,237.15,3,15
625,15,80,1,1,6170.8,240,280,209,24,293.1,4,14
626,15,80,1,3,6170.8,240,280,209,24,231.9,5,13
627,15,80,1,1,6170.8,240,280,209,24,276,6,12
6281,15,80,1,3,6170.8,240,280,209,24,507.1,7,11
6291,15,80,1,2,6170.8,240,280,209,24,524,8,10
6301,15,80,1,1,6170.8,240,280,209,24,262,9,9
6311,15,80,1,3,6170.8,240,280,209,24,157.1,10,8
6321,15,80,1,4,6170.8,240,280,209,24,350.8,11,7
6331,15,80,1,2,6170.8,240,280,209,24,272,12,6
6341,15,80,1,1,6170.8,240,280,209,24,312.2,13,5
635,15,80,1,2,6170.8,240,280,209,24,329,14,4
636,15,80,1,3,6170.8,240,280,209,24,364,15,3
637,15,80,1,1,6170.8,240,280,209,24,200,16,2
638,15,80,1,3,6170.8,240,280,209,24,99.3,17,1
668,15,85,0,1,5852.5,278,256,69,250,183.87,1,13
669,15,85,0,2,5852.5,278,256,69,250,408.02,2,12
670,15,85,0,4,5852.5,278,256,69,250,384.04,3,11
671,15,85,0,2,5852.5,278,256,69,250,325,4,10
672,15,85,0,1,5852.5,278,256,69,250,258.1,5,9
6731,15,85,0,3,5852.5,278,256,69,250,324.9,6,8
6741,15,85,0,4,5852.5,278,256,69,250,447.9,7,7
6751,15,85,0,2,5852.5,278,256,69,250,479,8,6
6761,15,85,0,4,5852.5,278,256,69,250,313.2,9,5
6771,15,85,0,1,5852.5,278,256,69,250,652,10,4
678,15,85,0,2,5852.5,278,256,69,250,584.1,11,3
679,15,85,0,1,5852.5,278,256,69,250,537.2,12,2
680,15,85,0,2,5852.5,278,256,69,250,344.3,13,1
6881,15,87,0,2,2699.2,255,245,33,240,490.53,1,7
6891,15,87,0,1,2699.2,255,245,33,240,12.12,2,6
6901,15,87,0,3,2699.2,255,245,33,240,183.1,3,5
691,15,87,0,4,2699.2,255,245,33,240,221.8,4,4
692,15,87,0,2,2699.2,255,245,33,240,358,5,3
693,15,87,0,1,2699.2,255,245,33,240,352.8,6,2
694,15,87,0,2,2699.2,255,245,33,240,440,7,1
758,15,93,0,1,2781.5,173,227,160,41,175.85,1,9
759,15,93,0,2,2781.5,173,227,160,41,239.08,2,8
760,15,93,0,3,2781.5,173,227,160,41,176.08,3,7
761,15,93,0,4,2781.5,173,227,160,41,248.94,4,6
762,15,93,0,3,2781.5,173,227,160,41,262,5,5
7631,15,93,0,1,2781.5,173,227,160,41,455.1,6,4
7641,15,93,0,2,2781.5,173,227,160,41,412,7,3
7651,15,93,0,1,2781.5,173,227,160,41,8.9,8,2
7661,15,93,0,2,2781.5,173,227,160,41,57.9,9,1
828,15,101,0,1,3856.6,300,280,89,250,209,1,11
829,15,101,0,2,3856.6,300,280,89,250,186.04,2,10
8301,15,101,0,4,3856.6,300,280,89,250,277.01,3,9
8311,15,101,0,2,3856.6,300,280,89,250,389.2,4,8
8321,15,101,0,1,3856.6,300,280,89,250,207.1,5,7
8331,15,101,0,3,3856.6,300,280,89,250,169.1,6,6
8341,15,101,0,4,3856.6,300,280,89,250,226,7,5
8351,15,101,0,3,3856.6,300,280,89,250,316.1,8,4
836,15,101,0,4,3856.6,300,280,89,250,221.9,9,3
837,15,101,0,1,3856.6,300,280,89,250,199.1,10,2
838,15,101,0,2,3856.6,300,280,89,250,471.7,11,1
839,15,102,1,1,1915.6,185,200,180,40,300.97,1,7
840,15,102,1,2,1915.6,185,200,180,40,238.06,2,6
841,15,102,1,4,1915.6,185,200,180,40,217.86,3,5
842,15,102,1,3,1915.6,185,200,180,40,253.1,4,4
843,15,102,1,1,1915.6,185,200,180,40,157.9,5,3
844,15,102,1,2,1915.6,185,200,180,40,230.1,6,2
845,15,102,1,4,1915.6,185,200,180,40,6.9,7,1
8561,15,104,1,1,8469.5,270,250,132,199,215.09,1,19
8571,15,104,1,2,8469.5,270,250,132,199,192.08,2,18
8581,15,104,1,3,8469.5,270,250,132,199,237.11,3,17
8591,15,104,1,4,8469.5,270,250,132,199,467.19,4,16
860,15,104,1,1,8469.5,270,250,132,199,173.8,5,15
861,15,104,1,4,8469.5,270,250,132,199,1337.8,6,14
862,15,104,1,3,8469.5,270,250,132,199,369,7,13
863,15,104,1,4,8469.5,270,250,132,199,260.6,8,12
864,15,104,1,2,8469.5,270,250,132,199,382.1,9,11
865,15,104,1,1,8469.5,270,250,132,199,345.9,10,10
866,15,104,1,3,8469.5,270,250,132,199,231.8,11,9
867,15,104,1,4,8469.5,270,250,132,199,208.9,12,8
868,15,104,1,2,8469.5,270,250,132,199,977.2,13,7
869,15,104,1,1,8469.5,270,250,132,199,117,14,6
870,15,104,1,2,8469.5,270,250,132,199,508.1,15,5
871,15,104,1,4,8469.5,270,250,132,199,170.1,16,4
872,15,104,1,3,8469.5,270,250,132,199,428.4,17,3
873,15,104,1,4,8469.5,270,250,132,199,154.9,18,2
874,15,104,1,1,8469.5,270,250,132,199,295.7,19,1
8951,15,106,1,1,1900.2,235,200,50,155,200,1,6
8961,15,106,1,2,1900.2,235,200,50,155,381.11,2,5
8971,15,106,1,1,1900.2,235,200,50,155,150.23,3,4
898,15,106,1,3,1900.2,235,200,50,155,241.85,4,3
899,15,106,1,4,1900.2,235,200,50,155,255.3,5,2
900,15,106,1,1,1900.2,235,200,50,155,355.4,6,1
909,15,108,1,1,2686.5,247,220,50,150,207.93,1,7
910,15,108,1,2,2686.5,247,220,50,150,222.16,2,6
911,15,108,1,4,2686.5,247,220,50,150,316.05,3,5
912,15,108,1,2,2686.5,247,220,50,150,242.1,4,4
913,15,108,1,1,2686.5,247,220,50,150,220.1,5,3
914,15,108,1,3,2686.5,247,220,50,150,438.1,6,2
9151,15,108,1,4,2686.5,247,220,50,150,201,7,1
965,15,113,1,1,4450.7,250,193,51,168,185.01,1,11
966,15,113,1,2,4450.7,250,193,51,168,263.08,2,10
967,15,113,1,4,4450.7,250,193,51,168,445.58,3,9
968,15,113,1,3,4450.7,250,193,51,168,8.9,4,8
969,15,113,1,1,4450.7,250,193,51,168,293,5,7
970,15,113,1,3,4450.7,250,193,51,168,351.1,6,6
971,15,113,1,2,4450.7,250,193,51,168,481.9,7,5
972,15,113,1,4,4450.7,250,193,51,168,467,8,4
973,15,113,1,3,4450.7,250,193,51,168,255.2,9,3
974,15,113,1,1,4450.7,250,193,51,168,280.9,10,2
975,15,113,1,2,4450.7,250,193,51,168,299.1,11,1
996,15,117,0,1,3267.1,234,260,180,42,176.65,1,9
997,15,117,0,2,3267.1,234,260,180,42,373.9,2,8
998,15,117,0,1,3267.1,234,260,180,42,184.24,3,7
999,15,117,0,4,3267.1,234,260,180,42,307.78,4,6
1000,15,117,0,3,3267.1,234,260,180,42,269,5,5
1001,15,117,0,4,3267.1,234,260,180,42,319,6,4
1002,15,117,0,2,3267.1,234,260,180,42,295.8,7,3
1003,15,117,0,1,3267.1,234,260,180,42,269.2,8,2
1004,15,117,0,4,3267.1,234,260,180,42,348.4,9,1
1005,15,118,0,2,8431,267,205,12,202,203.96,1,22
1006,15,118,0,4,8431,267,205,12,202,248.02,2,21
1007,15,118,0,3,8431,267,205,12,202,442.2,3,20
1008,15,118,0,1,8431,267,205,12,202,202.9,4,19
1009,15,118,0,2,8431,267,205,12,202,344.9,5,18
10101,15,118,0,4,8431,267,205,12,202,371,6,17
10111,15,118,0,2,8431,267,205,12,202,379.1,7,16
10121,15,118,0,1,8431,267,205,12,202,352.1,8,15
10131,15,118,0,3,8431,267,205,12,202,287,9,14
10141,15,118,0,2,8431,267,205,12,202,260.1,10,13
1015,15,118,0,4,8431,267,205,12,202,534,11,12
1016,15,118,0,2,8431,267,205,12,202,85.3,12,11
1017,15,118,0,1,8431,267,205,12,202,160.3,13,10
1018,15,118,0,3,8431,267,205,12,202,1072.1,14,9
1019,15,118,0,1,8431,267,205,12,202,9.9,15,8
1020,15,118,0,2,8431,267,205,12,202,25.9,16,7
1021,15,118,0,1,8431,267,205,12,202,442.6,17,6
10221,15,118,0,2,8431,267,205,12,202,178,18,5
10231,15,118,0,3,8431,267,205,12,202,241.1,19,4
10241,15,118,0,2,8431,267,205,12,202,298.4,20,3
10251,15,118,0,4,8431,267,205,12,202,409.9,21,2
10261,15,118,0,2,8431,267,205,12,202,167.4,22,1
10271,15,119,1,1,2101.1,250,270,234,105,189.99,1,6
10281,15,119,1,2,2101.1,250,270,234,105,311.02,2,5
10291,15,119,1,4,2101.1,250,270,234,105,262.76,3,4
10301,15,119,1,3,2101.1,250,270,234,105,336.1,4,3
10311,15,119,1,1,2101.1,250,270,234,105,201,5,2
10321,15,119,1,2,2101.1,250,270,234,105,374,6,1
10601,15,123,0,1,3295.4,286,256,79,198,161.01,1,10
10611,15,123,0,2,3295.4,286,256,79,198,322.05,2,9
10621,15,123,0,4,3295.4,286,256,79,198,422.05,3,8
10631,15,123,0,2,3295.4,286,256,79,198,214,4,7
10641,15,123,0,1,3295.4,286,256,79,198,329.9,5,6
10651,15,123,0,2,3295.4,286,256,79,198,276.2,6,5
10661,15,123,0,4,3295.4,286,256,79,198,199,7,4
10671,15,123,0,3,3295.4,286,256,79,198,290.8,8,3
10681,15,123,0,4,3295.4,286,256,79,198,580.1,9,2
1069,15,123,0,2,3295.4,286,256,79,198,130.2,10,1
1075,15,125,1,1,2260.2,289,246,116,188,273.35,1,4
1076,15,125,1,2,2260.2,289,246,116,188,476.01,2,3
1077,15,125,1,4,2260.2,289,246,116,188,758.01,3,2
1078,15,125,1,1,2260.2,289,246,116,188,292.8,4,1
1086,15,127,1,1,3002.2,276,220,42,191,329.77,1,8
1087,15,127,1,3,3002.2,276,220,42,191,154.9,2,7
1088,15,127,1,4,3002.2,276,220,42,191,296.77,3,6
1089,15,127,1,2,3002.2,276,220,42,191,556,4,5
1090,15,127,1,1,3002.2,276,220,42,191,334.2,5,4
1091,15,127,1,4,3002.2,276,220,42,191,247.9,6,3
1092,15,127,1,3,3002.2,276,220,42,191,427.9,7,2
1093,15,127,1,1,3002.2,276,220,42,191,35.2,8,1
1101,15,129,0,1,2412.9,275,255,27,250,193.89,1,7
1102,15,129,0,2,2412.9,275,255,27,250,214.92,2,6
11031,15,129,0,4,2412.9,275,255,27,250,297.93,3,5
11041,15,129,0,2,2412.9,275,255,27,250,262,4,4
11051,15,129,0,1,2412.9,275,255,27,250,423.9,5,3
1106,15,129,0,3,2412.9,275,255,27,250,249,6,2
1107,15,129,0,2,2412.9,275,255,27,250,48.2,7,1
1172,15,136,1,1,2954.7,250,284,240,50,156.84,1,10
1173,15,136,1,2,2954.7,250,284,240,50,319.94,2,9
1174,15,136,1,1,2954.7,250,284,240,50,189.83,3,8
1175,15,136,1,4,2954.7,250,284,240,50,221.96,4,7
1176,15,136,1,3,2954.7,250,284,240,50,484.8,5,6
1177,15,136,1,1,2954.7,250,284,240,50,320.4,6,5
1178,15,136,1,2,2954.7,250,284,240,50,364,7,4
1179,15,136,1,4,2954.7,250,284,240,50,315.1,8,3
1180,15,136,1,3,2954.7,250,284,240,50,208.9,9,2
1181,15,136,1,1,2954.7,250,284,240,50,31,10,1
1206,15,139,0,1,1688.9,261,241,60,220,161.92,1,5
1207,15,139,0,2,1688.9,261,241,60,220,385.93,2,4
1208,15,139,0,4,1688.9,261,241,60,220,250.91,3,3
1209,15,139,0,2,1688.9,261,241,60,220,188,4,2
1210,15,139,0,1,1688.9,261,241,60,220,179.7,5,1
1211,15,140,0,1,6082.1,289,240,28,152,6.92,1,13
1212,15,140,0,2,6082.1,289,240,28,152,228.94,2,12
1213,15,140,0,4,6082.1,289,240,28,152,423.14,3,11
1214,15,140,0,1,6082.1,289,240,28,152,148.8,4,10
1215,15,140,0,2,6082.1,289,240,28,152,400.1,5,9
1216,15,140,0,1,6082.1,289,240,28,152,472.9,6,8
1217,15,140,0,3,6082.1,289,240,28,152,857,7,7
1218,15,140,0,2,6082.1,289,240,28,152,193.1,8,6
1219,15,140,0,1,6082.1,289,240,28,152,363.2,9,5
1220,15,140,0,3,6082.1,289,240,28,152,266.1,10,4
1221,15,140,0,2,6082.1,289,240,28,152,399.2,11,3
1222,15,140,0,1,6082.1,289,240,28,152,451.9,12,2
1223,15,140,0,4,6082.1,289,240,28,152,163.5,13,1
1231,15,142,0,3,7569.7,249,222,49,200,193.7,1,19
1232,15,142,0,2,7569.7,249,222,49,200,144,2,18
1233,15,142,0,1,7569.7,249,222,49,200,282,3,17
1234,15,142,0,3,7569.7,249,222,49,200,437.9,4,16
1235,15,142,0,1,7569.7,249,222,49,200,183.9,5,15
1236,15,142,0,2,7569.7,249,222,49,200,246,6,14
1237,15,142,0,4,7569.7,249,222,49,200,324.2,7,13
1238,15,142,0,3,7569.7,249,222,49,200,6,8,12
1239,15,142,0,1,7569.7,249,222,49,200,204,9,11
1240,15,142,0,2,7569.7,249,222,49,200,308.2,10,10
1241,15,142,0,1,7569.7,249,222,49,200,408.3,11,9
1242,15,142,0,3,7569.7,249,222,49,200,473,12,8
1243,15,142,0,1,7569.7,249,222,49,200,457,13,7
1244,15,142,0,3,7569.7,249,222,49,200,483,14,6
1245,15,142,0,1,7569.7,249,222,49,200,423.6,15,5
1246,15,142,0,4,7569.7,249,222,49,200,293.2,16,4
1247,15,142,0,2,7569.7,249,222,49,200,327.2,17,3
1248,15,142,0,4,7569.7,249,222,49,200,246,18,2
1249,15,142,0,2,7569.7,249,222,49,200,551.9,19,1
1302,15,147,1,1,1573.7,267,277,241,48,149.14,1,6
1303,15,147,1,2,1573.7,267,277,241,48,355.13,2,5
1304,15,147,1,4,1573.7,267,277,241,48,167.06,3,4
1305,15,147,1,3,1573.7,267,277,241,48,182.9,4,3
1306,15,147,1,1,1573.7,267,277,241,48,213.3,5,2
1307,15,147,1,2,1573.7,267,277,241,48,218.8,6,1
1395,15,155,0,1,1945.5,239,229,32,144,2.81,1,7
1396,15,155,0,2,1945.5,239,229,32,144,296.97,2,6
1397,15,155,0,1,1945.5,239,229,32,144,161.73,3,5
1398,15,155,0,2,1945.5,239,229,32,144,80,4,4
1399,15,155,0,4,1945.5,239,229,32,144,276,5,3
1400,15,155,0,3,1945.5,239,229,32,144,176.9,6,2
1401,15,155,0,2,1945.5,239,229,32,144,227.4,7,1
1402,15,156,1,2,2722.2,250,290,237,56,324.08,1,8
1403,15,156,1,4,2722.2,250,290,237,56,182.98,2,7
1404,15,156,1,3,2722.2,250,290,237,56,253.05,3,6
1405,15,156,1,1,2722.2,250,290,237,56,291.1,4,5
1406,15,156,1,2,2722.2,250,290,237,56,522,5,4
1407,15,156,1,4,2722.2,250,290,237,56,209.9,6,3
1408,15,156,1,3,2722.2,250,290,237,56,10.1,7,2
1409,15,156,1,1,2722.2,250,290,237,56,228.2,8,1
1410,15,157,0,1,1661.6,277,264,30,136,122.89,1,5
1411,15,157,0,2,1661.6,277,264,30,136,251.03,2,4
1412,15,157,0,4,1661.6,277,264,30,136,326.9,3,3
1413,15,157,0,3,1661.6,277,264,30,136,153.1,4,2
1414,15,157,0,2,1661.6,277,264,30,136,171.3,5,1
1420,15,159,1,1,1853.1,260,300,250,30,188.93,1,7
1421,15,159,1,2,1853.1,260,300,250,30,235.29,2,6
1422,15,159,1,4,1853.1,260,300,250,30,228.96,3,5
1423,15,159,1,3,1853.1,260,300,250,30,205.08,4,4
1424,15,159,1,1,1853.1,260,300,250,30,286.8,5,3
1425,15,159,1,2,1853.1,260,300,250,30,244.2,6,2
1426,15,159,1,3,1853.1,260,300,250,30,25.2,7,1
1445,15,161,0,1,2519.2,266,234,26,134,162.77,1,9
1446,15,161,0,2,2519.2,266,234,26,134,376.01,2,8
1447,15,161,0,3,2519.2,266,234,26,134,163.89,3,7
1448,15,161,0,4,2519.2,266,234,26,134,358.2,4,6
1449,15,161,0,3,2519.2,266,234,26,134,178.8,5,5
1450,15,161,0,2,2519.2,266,234,26,134,234.2,6,4
14511,15,161,0,1,2519.2,266,234,26,134,276,7,3
1452,15,161,0,2,2519.2,266,234,26,134,143,8,2
1453,15,161,0,4,2519.2,266,234,26,134,172.4,9,1
1468,15,164,0,1,2583.4,273,250,102,241,154.74,1,8
1469,15,164,0,2,2583.4,273,250,102,241,245.84,2,7
1470,15,164,0,1,2583.4,273,250,102,241,194.16,3,6
14711,15,164,0,3,2583.4,273,250,102,241,169.99,4,5
1472,15,164,0,4,2583.4,273,250,102,241,440.1,5,4
1473,15,164,0,2,2583.4,273,250,102,241,212.1,6,3
1474,15,164,0,1,2583.4,273,250,102,241,6,7,2
1475,15,164,0,2,2583.4,273,250,102,241,504.2,8,1
1476,15,165,0,2,7767.1,231,268,193,159,235.8,1,19
1477,15,165,0,3,7767.1,231,268,193,159,50.91,2,18
1478,15,165,0,4,7767.1,231,268,193,159,441.83,3,17
1479,15,165,0,3,7767.1,231,268,193,159,394,4,16
1480,15,165,0,1,7767.1,231,268,193,159,202,5,15
14811,15,165,0,2,7767.1,231,268,193,159,291,6,14
1482,15,165,0,4,7767.1,231,268,193,159,324.2,7,13
1483,15,165,0,3,7767.1,231,268,193,159,4.9,8,12
1484,15,165,0,4,7767.1,231,268,193,159,271.1,9,11
1485,15,165,0,2,7767.1,231,268,193,159,542.2,10,10
1486,15,165,0,1,7767.1,231,268,193,159,207.9,11,9
1487,15,165,0,2,7767.1,231,268,193,159,391.9,12,8
1488,15,165,0,3,7767.1,231,268,193,159,180.9,13,7
1489,15,165,0,4,7767.1,231,268,193,159,441.2,14,6
1490,15,165,0,3,7767.1,231,268,193,159,186.9,15,5
14911,15,165,0,1,7767.1,231,268,193,159,11,16,4
1492,15,165,0,3,7767.1,231,268,193,159,506,17,3
1493,15,165,0,2,7767.1,231,268,193,159,266,18,2
1494,15,165,0,4,7767.1,231,268,193,159,196.1,19,1
1495,15,166,1,1,5590.2,294,226,37,134,165.98,1,14
1496,15,166,1,2,5590.2,294,226,37,134,176.94,2,13
1497,15,166,1,4,5590.2,294,226,37,134,302.04,3,12
1498,15,166,1,2,5590.2,294,226,37,134,657,4,11
1499,15,166,1,4,5590.2,294,226,37,134,183,5,10
1500,15,166,1,3,5590.2,294,226,37,134,258.1,6,9
15011,15,166,1,4,5590.2,294,226,37,134,377,7,8
1502,15,166,1,2,5590.2,294,226,37,134,468,8,7
1503,15,166,1,1,5590.2,294,226,37,134,310,9,6
1504,15,166,1,2,5590.2,294,226,37,134,486.1,10,5
1505,15,166,1,4,5590.2,294,226,37,134,420.1,11,4
1506,15,166,1,3,5590.2,294,226,37,134,325.8,12,3
1507,15,166,1,2,5590.2,294,226,37,134,234.3,13,2
1508,15,166,1,1,5590.2,294,226,37,134,125.3,14,1
1519,15,168,1,1,2398.3,220,250,202,20,12.12,1,7
1520,15,168,1,2,2398.3,220,250,202,20,249.15,2,6
1521,15,168,1,3,2398.3,220,250,202,20,256.89,3,5
1522,15,168,1,1,2398.3,220,250,202,20,332.1,4,4
1523,15,168,1,2,2398.3,220,250,202,20,468.9,5,3
1524,15,168,1,4,2398.3,220,250,202,20,316.9,6,2
1525,15,168,1,3,2398.3,220,250,202,20,62.2,7,1
1558,15,173,0,1,3698.1,265,248,69,155,140.92,1,10
1559,15,173,0,2,3698.1,265,248,69,155,249.12,2,9
1560,15,173,0,1,3698.1,265,248,69,155,236.85,3,8
1561,15,173,0,3,3698.1,265,248,69,155,149.09,4,7
1562,15,173,0,4,3698.1,265,248,69,155,480,5,6
1563,15,173,0,2,3698.1,265,248,69,155,357.1,6,5
1564,15,173,0,1,3698.1,265,248,69,155,237,7,4
1565,15,173,0,2,3698.1,265,248,69,155,580.2,8,3
1566,15,173,0,1,3698.1,265,248,69,155,315.4,9,2
1567,15,173,0,4,3698.1,265,248,69,155,327.9,10,1
1574,15,175,1,1,2292.7,260,300,250,50,193.95,1,7
1575,15,175,1,2,2292.7,260,300,250,50,326.3,2,6
1576,15,175,1,3,2292.7,260,300,250,50,269.75,3,5
1577,15,175,1,1,2292.7,260,300,250,50,221.9,4,4
1578,15,175,1,2,2292.7,260,300,250,50,352,5,3
1579,15,175,1,4,2292.7,260,300,250,50,219,6,2
1580,15,175,1,3,2292.7,260,300,250,50,168,7,1
1624,15,181,1,1,3859.3,230,250,221,48,80.88,1,9
1625,15,181,1,2,3859.3,230,250,221,48,237.14,2,8
1626,15,181,1,4,3859.3,230,250,221,48,432.83,3,7
1627,15,181,1,3,3859.3,230,250,221,48,9,4,6
1628,15,181,1,1,3859.3,230,250,221,48,392.2,5,5
1629,15,181,1,4,3859.3,230,250,221,48,208,6,4
1630,15,181,1,2,3859.3,230,250,221,48,1118,7,3
1631,15,181,1,4,3859.3,230,250,221,48,159.1,8,2
1632,15,181,1,3,3859.3,230,250,221,48,104.2,9,1
1639,15,183,0,2,6346,296,247,30,124,273.93,1,10
1640,15,183,0,4,6346,296,247,30,124,409.84,2,9
1641,15,183,0,3,6346,296,247,30,124,239.6,3,8
1642,15,183,0,4,6346,296,247,30,124,1881,4,7
1643,15,183,0,2,6346,296,247,30,124,469.1,5,6
1644,15,183,0,4,6346,296,247,30,124,535.4,6,5
1645,15,183,0,1,6346,296,247,30,124,237.9,7,4
1646,15,183,0,3,6346,296,247,30,124,387.9,8,3
1647,15,183,0,4,6346,296,247,30,124,802.2,9,2
1648,15,183,0,2,6346,296,247,30,124,211.9,10,1
1649,15,184,1,1,4173.8,292,194,32,193,178.61,1,7
1650,15,184,1,4,4173.8,292,194,32,193,317.04,2,6
1651,15,184,1,2,4173.8,292,194,32,193,387.24,3,5
1652,15,184,1,1,4173.8,292,194,32,193,458,4,4
1653,15,184,1,2,4173.8,292,194,32,193,211.1,5,3
1654,15,184,1,4,4173.8,292,194,32,193,1410.9,6,2
1655,15,184,1,2,4173.8,292,194,32,193,284,7,1
1665,15,186,0,1,3299.5,290,262,111,258,157.84,1,8
1666,15,186,0,2,3299.5,290,262,111,258,326.04,2,7
1667,15,186,0,4,3299.5,290,262,111,258,432.01,3,6
1668,15,186,0,3,3299.5,290,262,111,258,476,4,5
1669,15,186,0,1,3299.5,290,262,111,258,298.3,5,4
1670,15,186,0,3,3299.5,290,262,111,258,395.1,6,3
1671,15,186,0,4,3299.5,290,262,111,258,531,7,2
1672,15,186,0,2,3299.5,290,262,111,258,337.8,8,1
1728,15,192,0,1,2203.1,261,216,31,183,153.03,1,7
1729,15,192,0,2,2203.1,261,216,31,183,192.92,2,6
1730,15,192,0,4,2203.1,261,216,31,183,337.98,3,5
1731,15,192,0,2,2203.1,261,216,31,183,332.54,4,4
1732,15,192,0,1,2203.1,261,216,31,183,373.9,5,3
1733,15,192,0,3,2203.1,261,216,31,183,186.8,6,2
1734,15,192,0,4,2203.1,261,216,31,183,285.6,7,1
1763,15,197,0,1,3581.4,211,254,199,80,168.74,1,10
1764,15,197,0,2,3581.4,211,254,199,80,217.01,2,9
1765,15,197,0,4,3581.4,211,254,199,80,217.08,3,8
1766,15,197,0,3,3581.4,211,254,199,80,323.77,4,7
1767,15,197,0,1,3581.4,211,254,199,80,457,5,6
1768,15,197,0,2,3581.4,211,254,199,80,838.1,6,5
1769,15,197,0,1,3581.4,211,254,199,80,289.2,7,4
1770,15,197,0,2,3581.4,211,254,199,80,159.2,8,3
1771,15,197,0,4,3581.4,211,254,199,80,213.1,9,2
1772,15,197,0,3,3581.4,211,254,199,80,283.4,10,1
1786,15,200,0,1,4506.8,287,232,20,214,175.08,1,11
1787,15,200,0,2,4506.8,287,232,20,214,263.01,2,10
1788,15,200,0,4,4506.8,287,232,20,214,591.93,3,9
1789,15,200,0,2,4506.8,287,232,20,214,513.9,4,8
1790,15,200,0,1,4506.8,287,232,20,214,398,5,7
1791,15,200,0,3,4506.8,287,232,20,214,389.8,6,6
1792,15,200,0,2,4506.8,287,232,20,214,507.2,7,5
1793,15,200,0,1,4506.8,287,232,20,214,196.8,8,4
1794,15,200,0,2,4506.8,287,232,20,214,191.1,9,3
1795,15,200,0,4,4506.8,287,232,20,214,573.2,10,2
1796,15,200,0,2,4506.8,287,232,20,214,87.2,11,1
121,16,1,1,2,3212.6,264,277,136,30,283.92,1,7
22,16,1,1,4,3212.6,264,277,136,30,292.98,2,6
310,16,1,1,3,3212.6,264,277,136,30,223.01,3,5
47,16,1,1,1,3212.6,264,277,136,30,554.1,4,4
51,16,1,1,3,3212.6,264,277,136,30,420.4,5,3
610,16,1,1,2,3212.6,264,277,136,30,395.9,6,2
7,16,1,1,1,3212.6,264,277,136,30,43,7,1
8,16,2,1,2,3938.1,250,290,237,56,393.08,1,8
9,16,2,1,4,3938.1,250,290,237,56,294.01,2,7
1034,16,2,1,3,3938.1,250,290,237,56,417.87,3,6
1110,16,2,1,1,3938.1,250,290,237,56,540.1,4,5
122,16,2,1,2,3938.1,250,290,237,56,899,5,4
13,16,2,1,1,3938.1,250,290,237,56,342.2,6,3
14,16,2,1,3,3938.1,250,290,237,56,558.2,7,2
15,16,2,1,1,3938.1,250,290,237,56,180.1,8,1
25,16,5,0,2,2912.8,241,281,220,22,346.12,1,7
26,16,5,0,4,2912.8,241,281,220,22,382.83,2,6
27,16,5,0,3,2912.8,241,281,220,22,311.99,3,5
2810,16,5,0,1,2912.8,241,281,220,22,460,4,4
293,16,5,0,2,2912.8,241,281,220,22,515.9,5,3
3010,16,5,0,4,2912.8,241,281,220,22,540,6,2
311,16,5,0,2,2912.8,241,281,220,22,82.8,7,1
414,16,8,1,2,2691.1,250,273,241,102,400.86,1,6
426,16,8,1,1,2691.1,250,273,241,102,229.28,2,5
4310,16,8,1,4,2691.1,250,273,241,102,295.01,3,4
44,16,8,1,3,2691.1,250,273,241,102,460,4,3
45,16,8,1,1,2691.1,250,273,241,102,494.9,5,2
46,16,8,1,2,2691.1,250,273,241,102,256.9,6,1
722,16,12,0,2,2732.6,279,294,269,189,552.06,1,7
734,16,12,0,4,2732.6,279,294,269,189,378.09,2,6
744,16,12,0,3,2732.6,279,294,269,189,114.2,3,5
751,16,12,0,1,2732.6,279,294,269,189,436.9,4,4
769,16,12,0,3,2732.6,279,294,269,189,226,5,3
772,16,12,0,4,2732.6,279,294,269,189,354.9,6,2
784,16,12,0,2,2732.6,279,294,269,189,22.1,7,1
875,16,14,1,1,948.09,300,260,50,250,375.98,1,3
88,16,14,1,3,948.09,300,260,50,250,281.87,2,2
89,16,14,1,1,948.09,300,260,50,250,23.74,3,1
1109,16,19,1,2,2129.7,267,282,250,50,229.03,1,4
1111,16,19,1,1,2129.7,267,282,250,50,223.94,2,3
1121,16,19,1,4,2129.7,267,282,250,50,291.07,3,2
1131,16,19,1,3,2129.7,267,282,250,50,142.7,4,1
1147,16,20,1,2,2723.5,250,270,234,105,378.97,1,7
1151,16,20,1,4,2723.5,250,270,234,105,273.17,2,6
11610,16,20,1,3,2723.5,250,270,234,105,227.2,3,5
117,16,20,1,1,2723.5,250,270,234,105,360.3,4,4
118,16,20,1,2,2723.5,250,270,234,105,511.2,5,3
119,16,20,1,1,2723.5,250,270,234,105,280,6,2
120,16,20,1,3,2723.5,250,270,234,105,334.7,7,1
1761,16,31,1,1,686.7,235,200,50,155,208.81,1,2
1773,16,31,1,3,686.7,235,200,50,155,15.91,2,1
190,16,34,1,1,1284.9,296,247,30,124,356.99,1,4
1911,16,34,1,3,1284.9,296,247,30,124,271.47,2,3
192,16,34,1,1,1284.9,296,247,30,124,24.96,3,2
193,16,34,1,2,1284.9,296,247,30,124,96.5,4,1
2003,16,36,0,2,867.02,252,279,217,84,233.1,1,2
2012,16,36,0,4,867.02,252,279,217,84,223.57,2,1
2302,16,44,1,2,1301.8,250,193,51,168,158.9,1,5
2312,16,44,1,1,1301.8,250,193,51,168,264.89,2,4
2322,16,44,1,3,1301.8,250,193,51,168,251.82,3,3
2332,16,44,1,4,1301.8,250,193,51,168,371.27,4,2
2343,16,44,1,2,1301.8,250,193,51,168,6.1,5,1
241,16,46,0,2,677.37,167,200,143,62,457.9,1,2
2421,16,46,0,1,677.37,167,200,143,62,45.2,2,1
2491,16,48,0,1,3047.4,200,185,40,180,261.8,1,8
2501,16,48,0,2,3047.4,200,185,40,180,410.11,2,7
251,16,48,0,4,3047.4,200,185,40,180,193.02,3,6
252,16,48,0,3,3047.4,200,185,40,180,207.9,4,5
253,16,48,0,1,3047.4,200,185,40,180,279.1,5,4
254,16,48,0,2,3047.4,200,185,40,180,515,6,3
255,16,48,0,4,3047.4,200,185,40,180,397,7,2
256,16,48,0,2,3047.4,200,185,40,180,279,8,1
257,16,49,0,1,2016.8,284,250,50,240,286.9,1,5
258,16,49,0,2,2016.8,284,250,50,240,225.12,2,4
259,16,49,0,4,2016.8,284,250,50,240,477.01,3,3
260,16,49,0,2,2016.8,284,250,50,240,350.9,4,2
261,16,49,0,3,2016.8,284,250,50,240,358.2,5,1
2731,16,53,0,2,688.98,216,261,183,31,262.72,1,3
2741,16,53,0,1,688.98,216,261,183,31,184.97,2,2
2751,16,53,0,4,688.98,216,261,183,31,19.15,3,1
2791,16,55,0,2,574.88,234,260,180,42,326.99,1,2
280,16,55,0,4,574.88,234,260,180,42,40.84,2,1
2811,16,56,0,2,628.98,237,274,216,26,308.59,1,1
295,16,60,0,1,701.07,220,247,150,50,127.94,1,2
2961,16,60,0,2,701.07,220,247,150,50,352.94,2,1
3161,16,65,1,2,1220.1,248,265,155,69,192.81,1,4
3171,16,65,1,4,1220.1,248,265,155,69,229.85,2,3
3181,16,65,1,3,1220.1,248,265,155,69,244,3,2
3192,16,65,1,1,1220.1,248,265,155,69,168,4,1
3251,16,67,0,1,1546.8,142,130,77,95,249.86,1,4
3261,16,67,0,3,1546.8,142,130,77,95,288.94,2,3
3271,16,67,0,4,1546.8,142,130,77,95,252,3,2
3282,16,67,0,2,1546.8,142,130,77,95,269,4,1
3342,16,69,0,1,1256.3,256,286,198,79,117.8,1,4
3352,16,69,0,2,1256.3,256,286,198,79,537.11,2,3
3362,16,69,0,4,1256.3,256,286,198,79,245.93,3,2
3372,16,69,0,3,1256.3,256,286,198,79,76,4,1
365,16,79,1,1,518.84,292,194,32,193,302.95,1,1
3681,16,81,1,2,698.05,294,226,37,134,150.82,1,3
3691,16,81,1,1,698.05,294,226,37,134,293.01,2,2
3702,16,81,1,3,698.05,294,226,37,134,27.82,3,1
3771,16,83,0,1,678.82,186,272,153,12,153.89,1,3
3782,16,83,0,2,678.82,186,272,153,12,265.02,2,2
3792,16,83,0,4,678.82,186,272,153,12,51.94,3,1
3841,16,86,1,2,2807.4,289,246,116,188,146,1,7
3851,16,86,1,1,2807.4,289,246,116,188,297.12,2,6
3861,16,86,1,3,2807.4,289,246,116,188,218.12,3,5
3871,16,86,1,2,2807.4,289,246,116,188,327.87,4,4
3882,16,86,1,4,2807.4,289,246,116,188,453.9,5,3
3892,16,86,1,3,2807.4,289,246,116,188,391.1,6,2
3901,16,86,1,1,2807.4,289,246,116,188,671.5,7,1
3921,16,88,0,2,1035,240,280,209,24,241.07,1,3
3931,16,88,0,4,1035,240,280,209,24,80.82,2,2
394,16,88,0,1,1035,240,280,209,24,115.69,3,1
4012,16,91,0,1,1141.1,227,173,41,160,175.94,1,5
4021,16,91,0,3,1141.1,227,173,41,160,225.82,2,4
4031,16,91,0,4,1141.1,227,173,41,160,4.23,3,3
4041,16,91,0,2,1141.1,227,173,41,160,274.05,4,2
4051,16,91,0,4,1141.1,227,173,41,160,21.2,5,1
4081,16,93,1,1,1547.2,234,266,134,26,170.93,1,5
4092,16,93,1,2,1547.2,234,266,134,26,223.03,2,4
4102,16,93,1,4,1547.2,234,266,134,26,287.1,3,3
4112,16,93,1,3,1547.2,234,266,134,26,257.08,4,2
4122,16,93,1,1,1547.2,234,266,134,26,275.7,5,1
421,16,96,0,2,1693.1,230,259,199,54,208.95,1,5
422,16,96,0,4,1693.1,230,259,199,54,256.15,2,4
4231,16,96,0,3,1693.1,230,259,199,54,302.98,3,3
4241,16,96,0,1,1693.1,230,259,199,54,426.1,4,2
4251,16,96,0,2,1693.1,230,259,199,54,5.4,5,1
4301,16,98,0,2,1308.5,273,290,179,117,236.78,1,3
4311,16,98,0,4,1308.5,273,290,179,117,336.08,2,2
4321,16,98,0,1,1308.5,273,290,179,117,313.44,3,1
4402,16,101,0,1,1523.9,280,300,250,89,196.59,1,4
4412,16,101,0,2,1523.9,280,300,250,89,252.13,2,3
4421,16,101,0,4,1523.9,280,300,250,89,342.11,3,2
4431,16,101,0,1,1523.9,280,300,250,89,414.1,4,1
4552,16,105,0,2,1702.9,300,260,30,250,161.96,1,5
4562,16,105,0,1,1702.9,300,260,30,250,249.95,2,4
457,16,105,0,3,1702.9,300,260,30,250,190.04,3,3
458,16,105,0,4,1702.9,300,260,30,250,2.95,4,2
459,16,105,0,2,1702.9,300,260,30,250,469.5,5,1
4712,16,108,0,1,1852.4,255,245,33,240,178.52,1,5
4722,16,108,0,2,1852.4,255,245,33,240,520.87,2,4
4732,16,108,0,4,1852.4,255,245,33,240,216.39,3,3
4742,16,108,0,1,1852.4,255,245,33,240,282,4,2
4751,16,108,0,4,1852.4,255,245,33,240,330.9,5,1
4851,16,111,0,2,1750,290,262,111,258,159.93,1,5
486,16,111,0,1,1750,290,262,111,258,240.69,2,4
487,16,111,0,3,1750,290,262,111,258,264.13,3,3
4881,16,111,0,4,1750,290,262,111,258,241.87,4,2
4891,16,111,0,2,1750,290,262,111,258,581.7,5,1
4952,16,113,1,1,897.97,295,260,61,240,237.93,1,3
4961,16,113,1,3,897.97,295,260,61,240,270.83,2,2
4972,16,113,1,4,897.97,295,260,61,240,142.45,3,1
5211,16,117,0,2,3805.9,205,267,202,12,210.01,1,9
5221,16,117,0,4,3805.9,205,267,202,12,428.98,2,8
5231,16,117,0,3,3805.9,205,267,202,12,280,3,7
5241,16,117,0,1,3805.9,205,267,202,12,381,4,6
5251,16,117,0,2,3805.9,205,267,202,12,432.1,5,5
5261,16,117,0,1,3805.9,205,267,202,12,304,6,4
5271,16,117,0,2,3805.9,205,267,202,12,844,7,3
5281,16,117,0,1,3805.9,205,267,202,12,183,8,2
5291,16,117,0,2,3805.9,205,267,202,12,43.3,9,1
530,16,118,1,2,3450.9,255,275,250,27,253.97,1,6
531,16,118,1,4,3450.9,255,275,250,27,242.92,2,5
532,16,118,1,1,3450.9,255,275,250,27,403.26,3,4
533,16,118,1,3,3450.9,255,275,250,27,436.1,4,3
5341,16,118,1,2,3450.9,255,275,250,27,1537.1,5,2
5352,16,118,1,3,3450.9,255,275,250,27,2.9,6,1
5631,16,127,1,1,747.25,297,260,82,254,237.01,1,2
5641,16,127,1,3,747.25,297,260,82,254,142.1,2,1
5651,16,128,0,1,738.59,267,277,241,48,212.86,1,2
5661,16,128,0,2,738.59,267,277,241,48,307.2,2,1
5701,16,131,0,1,1224.6,239,229,32,144,274.08,1,4
5711,16,131,0,2,1224.6,239,229,32,144,269,2,3
5721,16,131,0,4,1224.6,239,229,32,144,260.07,3,2
5731,16,131,0,2,1224.6,239,229,32,144,54.1,4,1
5771,16,133,1,1,973.41,270,250,132,199,212.89,1,3
5781,16,133,1,2,973.41,270,250,132,199,388.54,2,2
5791,16,133,1,4,973.41,270,250,132,199,148.07,3,1
603,16,141,0,1,695.71,250,280,212,49,154.99,1,2
604,16,141,0,2,695.71,250,280,212,49,302.95,2,1
606,16,143,0,2,686.99,236,271,167,58,507.73,1,1
6332,16,149,1,1,848.71,267,200,30,154,469.73,1,1
6361,16,151,0,2,1964.8,240,289,152,28,647.99,1,4
6371,16,151,0,1,1964.8,240,289,152,28,196.9,2,3
6381,16,151,0,3,1964.8,240,289,152,28,399.9,3,2
6391,16,151,0,2,1964.8,240,289,152,28,96.8,4,1
643,16,153,1,2,689.03,205,150,38,145,178.92,1,1
644,16,154,1,2,2189.5,230,250,221,48,1167.97,1,4
645,16,154,1,4,2189.5,230,250,221,48,220.9,2,3
646,16,154,1,3,2189.5,230,250,221,48,383,3,2
647,16,154,1,1,2189.5,230,250,221,48,3.9,4,1
648,16,155,1,2,878.17,287,232,20,214,251.81,1,2
649,16,155,1,1,878.17,287,232,20,214,33,2,1
654,16,157,0,2,2336.3,289,260,33,186,782.97,1,4
655,16,157,0,1,2336.3,289,260,33,186,6.8,2,3
656,16,157,0,4,2336.3,289,260,33,186,345,3,2
657,16,157,0,2,2336.3,289,260,33,186,352.6,4,1
665,16,160,0,2,1422.9,260,286,137,55,1090.59,1,1
666,16,161,0,2,945.47,256,278,250,69,760.3,1,1
6701,16,163,0,2,2073.8,230,213,41,193,427.9,1,2
6711,16,163,0,4,2073.8,230,213,41,193,898.7,2,1
6861,16,169,1,1,487.19,254,211,80,199,127.27,1,1
6902,16,173,1,2,586.61,276,220,42,191,170.99,1,2
6911,16,173,1,1,586.61,276,220,42,191,213.92,2,1
7001,16,177,1,1,739.72,249,222,49,200,367.42,1,1
702,16,179,1,2,1313.9,241,261,220,60,407.99,1,3
703,16,179,1,1,1313.9,241,261,220,60,27.92,2,2
704,16,179,1,3,1313.9,241,261,220,60,204.6,3,1
705,16,180,1,1,915.15,268,231,159,193,250.93,1,1
706,16,181,1,2,1663.1,241,252,180,97,219.09,1,3
707,16,181,1,4,1663.1,241,252,180,97,241.06,2,2
708,16,181,1,3,1663.1,241,252,180,97,457.2,3,1
715,16,185,1,2,694.07,271,207,5,187,174.91,1,2
716,16,185,1,1,694.07,271,207,5,187,312.6,2,1
717,16,186,1,1,1261.4,220,250,202,20,7.91,1,3
718,16,186,1,2,1261.4,220,250,202,20,428.91,2,2
719,16,186,1,1,1261.4,220,250,202,20,103.4,3,1
720,16,187,0,2,641.38,250,281,171,62,397.86,1,2
721,16,187,0,1,641.38,250,281,171,62,22.4,2,1
7311,16,192,1,2,882.19,291,203,50,174,152.85,1,3
7321,16,192,1,1,882.19,291,203,50,174,195.12,2,2
733,16,192,1,3,882.19,291,203,50,174,304.09,3,1
738,16,194,0,2,1599.4,200,279,197,31,243.03,1,4
739,16,194,0,4,1599.4,200,279,197,31,274.91,2,3
740,16,194,0,1,1599.4,200,279,197,31,406.96,3,2
741,16,194,0,2,1599.4,200,279,197,31,203.3,4,1
742,16,195,1,2,589.64,246,191,68,187,123.88,1,2
743,16,195,1,1,589.64,246,191,68,187,267.29,2,1
123,17,1,1,1,849.58,292,194,32,193,478.75,1,1
1112,17,3,1,1,2513.1,247,296,124,30,225.13,1,7
1224,17,3,1,2,2513.1,247,296,124,30,212.49,2,6
1310,17,3,1,4,2513.1,247,296,124,30,285.88,3,5
1415,17,3,1,3,2513.1,247,296,124,30,214.99,4,4
152,17,3,1,1,2513.1,247,296,124,30,414.2,5,3
165,17,3,1,3,2513.1,247,296,124,30,344,6,2
1712,17,3,1,1,2513.1,247,296,124,30,514.1,7,1
221,17,5,0,1,2043,280,250,49,212,380.72,1,6
23,17,5,0,2,2043,280,250,49,212,248.16,2,5
24,17,5,0,1,2043,280,250,49,212,145.13,3,4
2510,17,5,0,3,2043,280,250,49,212,228.1,4,3
262,17,5,0,4,2043,280,250,49,212,243.9,5,2
277,17,5,0,2,2043,280,250,49,212,230,6,1
4410,17,10,1,1,2057.8,255,245,33,240,332.96,1,3
4510,17,10,1,2,2057.8,255,245,33,240,389.03,2,2
461,17,10,1,1,2057.8,255,245,33,240,1085.43,3,1
511,17,12,1,1,3490.5,250,230,48,221,264.87,1,8
5210,17,12,1,2,3490.5,250,230,48,221,231.1,2,7
5310,17,12,1,4,3490.5,250,230,48,221,359.83,3,6
546,17,12,1,2,3490.5,250,230,48,221,408.9,4,5
551,17,12,1,1,3490.5,250,230,48,221,233.1,5,4
5610,17,12,1,4,3490.5,250,230,48,221,580.9,6,3
5710,17,12,1,2,3490.5,250,230,48,221,408,7,2
5810,17,12,1,1,3490.5,250,230,48,221,335.9,8,1
611,17,14,1,2,1773.9,252,279,217,84,196.89,1,5
6210,17,14,1,4,1773.9,252,279,217,84,230.45,2,4
6310,17,14,1,3,1773.9,252,279,217,84,145.09,3,3
6410,17,14,1,1,1773.9,252,279,217,84,337.95,4,2
652,17,14,1,3,1773.9,252,279,217,84,426.4,5,1
662,17,15,0,1,1934.2,265,248,69,155,237.05,1,5
6712,17,15,0,2,1934.2,265,248,69,155,381.98,2,4
6810,17,15,0,4,1934.2,265,248,69,155,425.07,3,3
6912,17,15,0,2,1934.2,265,248,69,155,187,4,2
709,17,15,0,3,1934.2,265,248,69,155,283.6,5,1
711,17,16,1,1,2424.1,261,216,31,183,252.85,1,6
7210,17,16,1,3,2424.1,261,216,31,183,5.96,2,5
7310,17,16,1,4,2424.1,261,216,31,183,165.1,3,4
745,17,16,1,2,2424.1,261,216,31,183,406.15,4,3
753,17,16,1,4,2424.1,261,216,31,183,626,5,2
7610,17,16,1,1,2424.1,261,216,31,183,419.5,6,1
773,17,17,0,1,1548.9,281,250,62,171,337.91,1,4
785,17,17,0,2,1548.9,281,250,62,171,237.06,2,3
7910,17,17,0,4,1548.9,281,250,62,171,385.9,3,2
8010,17,17,0,2,1548.9,281,250,62,171,287.7,4,1
10612,17,20,0,1,3498.5,236,271,167,58,190.79,1,11
1072,17,20,0,2,3498.5,236,271,167,58,291.98,2,10
1082,17,20,0,4,3498.5,236,271,167,58,275.17,3,9
1095,17,20,0,3,3498.5,236,271,167,58,170,4,8
11010,17,20,0,1,3498.5,236,271,167,58,385,5,7
1113,17,20,0,3,3498.5,236,271,167,58,285.1,6,6
1122,17,20,0,1,3498.5,236,271,167,58,378.8,7,5
1132,17,20,0,2,3498.5,236,271,167,58,165.1,8,4
1148,17,20,0,3,3498.5,236,271,167,58,404.9,9,3
11510,17,20,0,4,3498.5,236,271,167,58,99.9,10,2
11611,17,20,0,2,3498.5,236,271,167,58,321.6,11,1
124,17,22,1,1,1763.8,267,282,250,50,245.88,1,5
1251,17,22,1,2,1763.8,267,282,250,50,354.85,2,4
1261,17,22,1,4,1763.8,267,282,250,50,187,3,3
1271,17,22,1,3,1763.8,267,282,250,50,145.9,4,2
1281,17,22,1,1,1763.8,267,282,250,50,384.4,5,1
1352,17,24,0,1,1079.4,226,294,134,37,140.95,1,2
1362,17,24,0,2,1079.4,226,294,134,37,553.12,2,1
1416,17,26,0,1,2168,211,254,199,80,228.01,1,6
1427,17,26,0,2,2168,211,254,199,80,307.19,2,5
1431,17,26,0,4,2168,211,254,199,80,202.06,3,4
1442,17,26,0,3,2168,211,254,199,80,169.4,4,3
1455,17,26,0,1,2168,211,254,199,80,422.9,5,2
1463,17,26,0,2,2168,211,254,199,80,523.3,6,1
157,17,30,0,1,1823.3,277,267,48,241,358.54,1,4
158,17,30,0,2,1823.3,277,267,48,241,323.12,2,3
1592,17,30,0,4,1823.3,277,267,48,241,375.08,3,2
1602,17,30,0,1,1823.3,277,267,48,241,388.9,4,1
1612,17,31,1,1,1533.7,185,200,180,40,253.92,1,4
1622,17,31,1,2,1533.7,185,200,180,40,210.91,2,3
1634,17,31,1,4,1533.7,185,200,180,40,167.96,3,2
16410,17,31,1,1,1533.7,185,200,180,40,423.9,4,1
2323,17,45,1,1,2119.5,290,250,56,237,260.71,1,5
2333,17,45,1,2,2119.5,290,250,56,237,197.84,2,4
2344,17,45,1,3,2119.5,290,250,56,237,8.4,3,3
2353,17,45,1,2,2119.5,290,250,56,237,371.8,4,2
2362,17,45,1,1,2119.5,290,250,56,237,269.2,5,1
240,17,47,0,1,1258.3,281,241,22,220,350.86,1,4
2411,17,47,0,2,1258.3,281,241,22,220,235.85,2,3
2422,17,47,0,4,1258.3,281,241,22,220,229.03,3,2
243,17,47,0,2,1258.3,281,241,22,220,66.2,4,1
2551,17,50,0,1,1563.3,260,234,42,180,394.87,1,4
2561,17,50,0,2,1563.3,260,234,42,180,180.97,2,3
2571,17,50,0,4,1563.3,260,234,42,180,231.86,3,2
2581,17,50,0,2,1563.3,260,234,42,180,448.4,4,1
2881,17,60,0,1,1373.1,259,230,54,199,218.72,1,4
2891,17,60,0,2,1373.1,259,230,54,199,269.09,2,3
2901,17,60,0,4,1373.1,259,230,54,199,143.82,3,2
2911,17,60,0,2,1373.1,259,230,54,199,352.9,4,1
2921,17,61,0,1,3133.1,279,294,269,189,228.87,1,9
2931,17,61,0,2,3133.1,279,294,269,189,273.91,2,8
294,17,61,0,4,3133.1,279,294,269,189,77.04,3,7
2951,17,61,0,2,3133.1,279,294,269,189,248,4,6
2962,17,61,0,1,3133.1,279,294,269,189,427.9,5,5
2971,17,61,0,3,3133.1,279,294,269,189,444.1,6,4
2981,17,61,0,4,3133.1,279,294,269,189,478.2,7,3
2991,17,61,0,3,3133.1,279,294,269,189,211.1,8,2
3001,17,61,0,2,3133.1,279,294,269,189,5.9,9,1
3252,17,67,0,1,1351.3,275,255,27,250,241.14,1,3
3262,17,67,0,2,1351.3,275,255,27,250,393.19,2,2
3272,17,67,0,4,1351.3,275,255,27,250,247.9,3,1
359,17,74,0,3,1710.2,235,200,50,155,7.04,1,6
360,17,74,0,1,1710.2,235,200,50,155,259.47,2,5
3611,17,74,0,4,1710.2,235,200,50,155,177.03,3,4
362,17,74,0,2,1710.2,235,200,50,155,210,4,3
363,17,74,0,4,1710.2,235,200,50,155,299.9,5,2
364,17,74,0,2,1710.2,235,200,50,155,139.4,6,1
3711,17,76,0,1,3994.2,130,142,95,77,287.7,1,8
3721,17,76,0,2,3994.2,130,142,95,77,617.1,2,7
3731,17,76,0,4,3994.2,130,142,95,77,192,3,6
3742,17,76,0,2,3994.2,130,142,95,77,306,4,5
3752,17,76,0,1,3994.2,130,142,95,77,307.9,5,4
3761,17,76,0,3,3994.2,130,142,95,77,195,6,3
3772,17,76,0,4,3994.2,130,142,95,77,438.2,7,2
3783,17,76,0,2,3994.2,130,142,95,77,55.3,8,1
3902,17,79,1,1,2250.5,246,191,68,187,204.9,1,5
3912,17,79,1,4,2250.5,246,191,68,187,277,2,4
3922,17,79,1,2,2250.5,246,191,68,187,533.09,3,3
3932,17,79,1,1,2250.5,246,191,68,187,223.9,4,2
3941,17,79,1,3,2250.5,246,191,68,187,363.1,5,1
400,17,81,0,1,1601.9,280,300,250,89,418.87,1,4
4013,17,81,0,2,1601.9,280,300,250,89,311.11,2,3
4022,17,81,0,4,1601.9,280,300,250,89,337,3,2
4032,17,81,0,2,1601.9,280,300,250,89,121.4,4,1
4082,17,83,0,1,1926.7,270,250,132,199,241.92,1,6
4093,17,83,0,3,1926.7,270,250,132,199,142.53,2,5
4103,17,83,0,2,1926.7,270,250,132,199,370.94,3,4
4113,17,83,0,4,1926.7,270,250,132,199,280,4,3
4123,17,83,0,2,1926.7,270,250,132,199,279,5,2
4132,17,83,0,3,1926.7,270,250,132,199,6.9,6,1
4282,17,87,0,1,1972.1,239,229,32,144,349.96,1,4
4291,17,87,0,2,1972.1,239,229,32,144,413.03,2,3
4302,17,87,0,4,1972.1,239,229,32,144,328.1,3,2
4312,17,87,0,1,1972.1,239,229,32,144,72.1,4,1
4352,17,89,1,1,2643,272,186,12,153,299.88,1,7
4361,17,89,1,2,2643,272,186,12,153,226.94,2,6
4371,17,89,1,4,2643,272,186,12,153,303.91,3,5
4382,17,89,1,1,2643,272,186,12,153,374,4,4
4392,17,89,1,2,2643,272,186,12,153,221,5,3
4403,17,89,1,3,2643,272,186,12,153,16.9,6,2
4413,17,89,1,1,2643,272,186,12,153,299.3,7,1
4422,17,90,0,1,2864.2,200,167,62,143,389.94,1,5
4432,17,90,0,2,2864.2,200,167,62,143,403.04,2,4
4442,17,90,0,4,2864.2,200,167,62,143,304,3,3
4452,17,90,0,1,2864.2,200,167,62,143,822.1,4,2
4461,17,90,0,2,2864.2,200,167,62,143,264.1,5,1
4553,17,93,0,1,1489,250,270,234,105,233.91,1,4
4563,17,93,0,2,1489,250,270,234,105,251,2,3
4571,17,93,0,3,1489,250,270,234,105,140.4,3,2
4581,17,93,0,1,1489,250,270,234,105,302.8,4,1
4661,17,95,1,1,1679.3,260,297,254,82,189.96,1,6
4671,17,95,1,2,1679.3,260,297,254,82,179.04,2,5
4681,17,95,1,4,1679.3,260,297,254,82,240.02,3,4
4691,17,95,1,2,1679.3,260,297,254,82,196.11,4,3
4701,17,95,1,1,1679.3,260,297,254,82,240,5,2
4713,17,95,1,3,1679.3,260,297,254,82,308.4,6,1
481,17,98,1,1,1530.8,213,230,193,41,181.08,1,4
482,17,98,1,2,1530.8,213,230,193,41,407.37,2,3
4831,17,98,1,1,1530.8,213,230,193,41,383.1,3,2
4841,17,98,1,3,1530.8,213,230,193,41,48.3,4,1
4962,17,102,1,1,1306.5,240,280,209,24,197.91,1,4
4973,17,102,1,2,1306.5,240,280,209,24,255.86,2,3
4982,17,102,1,1,1306.5,240,280,209,24,223.95,3,2
4992,17,102,1,3,1306.5,240,280,209,24,239.4,4,1
5191,17,106,0,1,1841.5,295,260,61,240,269.93,1,4
5201,17,106,0,2,1841.5,295,260,61,240,496.97,2,3
5212,17,106,0,4,1841.5,295,260,61,240,477,3,2
5222,17,106,0,3,1841.5,295,260,61,240,9,4,1
5353,17,109,1,1,1638.8,241,261,220,60,324.78,1,3
5362,17,109,1,2,1638.8,241,261,220,60,707.13,2,2
5372,17,109,1,1,1638.8,241,261,220,60,340,3,1
6041,17,120,1,1,2189.4,260,286,137,55,194.91,1,6
605,17,120,1,2,2189.4,260,286,137,55,265.99,2,5
6061,17,120,1,4,2189.4,260,286,137,55,271.1,3,4
607,17,120,1,1,2189.4,260,286,137,55,526.9,4,3
608,17,120,1,2,2189.4,260,286,137,55,320.2,5,2
609,17,120,1,3,2189.4,260,286,137,55,128.8,6,1
616,17,123,1,1,2622.8,237,274,216,26,73.73,1,6
617,17,123,1,2,2622.8,237,274,216,26,323.86,2,5
618,17,123,1,1,2622.8,237,274,216,26,359.06,3,4
619,17,123,1,3,2622.8,237,274,216,26,352.3,4,3
620,17,123,1,2,2622.8,237,274,216,26,337.8,5,2
6211,17,123,1,1,2622.8,237,274,216,26,171.5,6,1
6221,17,124,0,2,2525.5,205,267,202,12,389.81,1,6
6231,17,124,0,1,2525.5,205,267,202,12,314.1,2,5
6241,17,124,0,3,2525.5,205,267,202,12,222.3,3,4
6251,17,124,0,4,2525.5,205,267,202,12,30,4,3
6261,17,124,0,2,2525.5,205,267,202,12,504.1,5,2
6271,17,124,0,1,2525.5,205,267,202,12,475.5,6,1
6282,17,125,1,1,2302.2,203,291,174,50,173.97,1,7
6292,17,125,1,2,2302.2,203,291,174,50,6.06,2,6
6302,17,125,1,1,2302.2,203,291,174,50,278.89,3,5
6312,17,125,1,3,2302.2,203,291,174,50,242,4,4
6322,17,125,1,2,2302.2,203,291,174,50,244.9,5,3
6333,17,125,1,1,2302.2,203,291,174,50,275.7,6,2
6342,17,125,1,3,2302.2,203,291,174,50,80.6,7,1
6382,17,127,1,1,2809.7,232,287,214,20,603.79,1,4
6392,17,127,1,3,2809.7,232,287,214,20,415,2,3
640,17,127,1,1,2809.7,232,287,214,20,432.9,3,2
6411,17,127,1,2,2809.7,232,287,214,20,833,4,1
642,17,128,1,1,3039.2,150,205,145,38,379.91,1,6
6431,17,128,1,2,3039.2,150,205,145,38,303.9,2,5
6441,17,128,1,3,3039.2,150,205,145,38,448,3,4
6451,17,128,1,1,3039.2,150,205,145,38,277.1,4,3
6461,17,128,1,2,3039.2,150,205,145,38,468.7,5,2
6471,17,128,1,1,3039.2,150,205,145,38,276.4,6,1
6713,17,134,1,1,2038.2,220,250,202,20,389.79,1,3
6721,17,134,1,2,2038.2,220,250,202,20,367.94,2,2
6732,17,134,1,1,2038.2,220,250,202,20,809.5,3,1
6811,17,137,1,1,2121.6,234,266,134,26,244.92,1,4
6821,17,137,1,2,2121.6,234,266,134,26,597.99,2,3
6831,17,137,1,1,2121.6,234,266,134,26,459,3,2
6841,17,137,1,2,2121.6,234,266,134,26,268.9,4,1
6882,17,139,1,1,1387.1,264,277,136,30,268.02,1,3
6892,17,139,1,2,1387.1,264,277,136,30,466.96,2,2
6903,17,139,1,1,1387.1,264,277,136,30,31.4,3,1
6971,17,141,1,1,2005,193,250,168,51,255.89,1,4
6981,17,141,1,2,2005,193,250,168,51,991,2,3
6991,17,141,1,1,2005,193,250,168,51,212.1,3,2
7002,17,141,1,3,2005,193,250,168,51,286.4,4,1
7181,17,147,0,1,2674.7,249,222,49,200,414.02,1,6
7191,17,147,0,2,2674.7,249,222,49,200,405.31,2,5
7201,17,147,0,1,2674.7,249,222,49,200,189.9,3,4
7211,17,147,0,3,2674.7,249,222,49,200,23,4,3
7221,17,147,0,4,2674.7,249,222,49,200,338.1,5,2
723,17,147,0,2,2674.7,249,222,49,200,393.4,6,1
7341,17,150,0,1,2186.7,278,256,69,250,307.91,1,4
735,17,150,0,3,2186.7,278,256,69,250,54.99,2,3
736,17,150,0,2,2186.7,278,256,69,250,471.2,3,2
737,17,150,0,4,2186.7,278,256,69,250,696.2,4,1
7381,17,151,1,3,1763.7,256,286,198,79,386.05,1,5
7391,17,151,1,1,1763.7,256,286,198,79,304.22,2,4
7401,17,151,1,2,1763.7,256,286,198,79,254.12,3,3
7411,17,151,1,4,1763.7,256,286,198,79,263.9,4,2
7421,17,151,1,3,1763.7,256,286,198,79,229.4,5,1
750,17,154,1,2,1227.1,200,267,154,30,215,1,3
7511,17,154,1,3,1227.1,200,267,154,30,196.09,2,2
752,17,154,1,1,1227.1,200,267,154,30,202.4,3,1
7941,17,163,1,1,1770.8,246,289,188,116,339.83,1,5
795,17,163,1,3,1770.8,246,289,188,116,368.96,2,4
796,17,163,1,1,1770.8,246,289,188,116,295,3,3
797,17,163,1,2,1770.8,246,289,188,116,214,4,2
798,17,163,1,4,1770.8,246,289,188,116,139.1,5,1
8041,17,165,0,3,1850.2,247,220,50,150,60.77,1,6
8051,17,165,0,1,1850.2,247,220,50,150,283.93,2,5
806,17,165,0,2,1850.2,247,220,50,150,403.96,3,4
807,17,165,0,1,1850.2,247,220,50,150,220.2,4,3
808,17,165,0,4,1850.2,247,220,50,150,109.9,5,2
809,17,165,0,2,1850.2,247,220,50,150,158.1,6,1
8151,17,167,1,1,2120.3,273,290,179,117,413.83,1,6
8161,17,167,1,2,2120.3,273,290,179,117,270.03,2,5
8171,17,167,1,4,2120.3,273,290,179,117,340.23,3,4
8181,17,167,1,2,2120.3,273,290,179,117,335.1,4,3
8191,17,167,1,1,2120.3,273,290,179,117,406.1,5,2
8201,17,167,1,3,2120.3,273,290,179,117,25.2,6,1
8211,17,168,1,1,1841.6,250,273,241,102,262.93,1,3
822,17,168,1,2,1841.6,250,273,241,102,480.09,2,2
823,17,168,1,1,1841.6,250,273,241,102,706.2,3,1
8332,17,170,0,1,2601,227,173,41,160,381.78,1,9
8342,17,170,0,2,2601,227,173,41,160,228.14,2,8
8352,17,170,0,4,2601,227,173,41,160,253.36,3,7
8361,17,170,0,2,2601,227,173,41,160,433.1,4,6
8371,17,170,0,1,2601,227,173,41,160,162.9,5,5
8381,17,170,0,3,2601,227,173,41,160,9,6,4
8391,17,170,0,1,2601,227,173,41,160,279.2,7,3
8401,17,170,0,2,2601,227,173,41,160,13.8,8,2
8411,17,170,0,4,2601,227,173,41,160,35.8,9,1
8421,17,171,0,1,1208.2,289,260,33,186,331.85,1,3
8431,17,171,0,2,1208.2,289,260,33,186,291,2,2
8441,17,171,0,4,1208.2,289,260,33,186,120.1,3,1
853,17,174,1,1,2175.7,279,200,31,197,223.89,1,5
854,17,174,1,4,2175.7,279,200,31,197,344.11,2,4
855,17,174,1,2,2175.7,279,200,31,197,335.1,3,3
8562,17,174,1,1,2175.7,279,200,31,197,260,4,2
8572,17,174,1,3,2175.7,279,200,31,197,22,5,1
8641,17,176,1,2,1227.1,260,300,250,30,260.97,1,4
8651,17,176,1,4,1227.1,260,300,250,30,227.1,2,3
8661,17,176,1,1,1227.1,260,300,250,30,273.89,3,2
8671,17,176,1,3,1227.1,260,300,250,30,106.7,4,1
8711,17,178,1,1,2106.8,250,284,240,50,348.7,1,3
8721,17,178,1,2,2106.8,250,284,240,50,426.89,2,2
8731,17,178,1,1,2106.8,250,284,240,50,513,3,1
8741,17,179,0,1,1502.1,276,220,42,191,215.91,1,3
8751,17,179,0,2,1502.1,276,220,42,191,311.03,2,2
876,17,179,0,4,1502.1,276,220,42,191,297.8,3,1
877,17,180,0,1,1376.1,231,268,193,159,272.78,1,2
878,17,180,0,2,1376.1,231,268,193,159,435.11,2,1
9091,17,189,1,2,2497.1,262,290,258,111,258.08,1,5
9101,17,189,1,1,2497.1,262,290,258,111,363.59,2,4
9111,17,189,1,3,2497.1,262,290,258,111,407.97,3,3
9121,17,189,1,4,2497.1,262,290,258,111,269.8,4,2
9131,17,189,1,2,2497.1,262,290,258,111,611.1,5,1
9191,17,192,1,1,1255.9,260,300,250,50,221.93,1,3
9201,17,192,1,2,1255.9,260,300,250,50,251.11,2,2
9211,17,192,1,1,1255.9,260,300,250,50,116.7,3,1
925,17,194,0,1,1641.4,271,207,5,187,422.85,1,4
926,17,194,0,2,1641.4,271,207,5,187,325,2,3
9271,17,194,0,1,1641.4,271,207,5,187,111.1,3,2
9281,17,194,0,4,1641.4,271,207,5,187,100.6,4,1
937,17,197,0,1,1936.6,252,241,97,180,309.77,1,5
938,17,197,0,2,1936.6,252,241,97,180,178.01,2,4
939,17,197,0,1,1936.6,252,241,97,180,324.92,3,3
940,17,197,0,4,1936.6,252,241,97,180,407,4,2
941,17,197,0,2,1936.6,252,241,97,180,206.5,5,1
9511,17,200,0,1,1902.9,240,289,152,28,397.74,1,5
9521,17,200,0,3,1902.9,240,289,152,28,226.09,2,4
9531,17,200,0,2,1902.9,240,289,152,28,262.04,3,3
9541,17,200,0,4,1902.9,240,289,152,28,341,4,2
9551,17,200,0,2,1902.9,240,289,152,28,353.6,5,1
2910,18,3,0,2,4399.5,300,260,50,250,171.88,1,8
3011,18,3,0,1,4399.5,300,260,50,250,243.06,2,7
3110,18,3,0,3,4399.5,300,260,50,250,218.14,3,6
3210,18,3,0,4,4399.5,300,260,50,250,289,4,5
3312,18,3,0,2,4399.5,300,260,50,250,658,5,4
344,18,3,0,4,4399.5,300,260,50,250,1313.2,6,3
3510,18,3,0,2,4399.5,300,260,50,250,499.1,7,2
3610,18,3,0,4,4399.5,300,260,50,250,569.9,8,1
7611,18,6,1,2,7175.9,255,275,250,27,62.19,1,15
774,18,6,1,3,7175.9,255,275,250,27,390.07,2,14
786,18,6,1,1,7175.9,255,275,250,27,351.8,3,13
7911,18,6,1,2,7175.9,255,275,250,27,242,4,12
8011,18,6,1,4,7175.9,255,275,250,27,308,5,11
8111,18,6,1,2,7175.9,255,275,250,27,356.8,6,10
8210,18,6,1,1,7175.9,255,275,250,27,408.8,7,9
8310,18,6,1,2,7175.9,255,275,250,27,0.8,8,8
846,18,6,1,4,7175.9,255,275,250,27,921,9,7
851,18,6,1,3,7175.9,255,275,250,27,299,10,6
8610,18,6,1,1,7175.9,255,275,250,27,459.2,11,5
8710,18,6,1,2,7175.9,255,275,250,27,248.1,12,4
8810,18,6,1,4,7175.9,255,275,250,27,1124.3,13,3
8910,18,6,1,2,7175.9,255,275,250,27,429.9,14,2
90,18,6,1,1,7175.9,255,275,250,27,152.9,15,1
91,18,7,1,1,8554.1,229,239,144,32,217.98,1,19
923,18,7,1,2,8554.1,229,239,144,32,405.07,2,18
932,18,7,1,1,8554.1,229,239,144,32,153.9,3,17
942,18,7,1,3,8554.1,229,239,144,32,343.8,4,16
957,18,7,1,4,8554.1,229,239,144,32,169.2,5,15
961,18,7,1,1,8554.1,229,239,144,32,314.1,6,14
976,18,7,1,2,8554.1,229,239,144,32,634.1,7,13
984,18,7,1,1,8554.1,229,239,144,32,461.1,8,12
9910,18,7,1,3,8554.1,229,239,144,32,3,9,11
10010,18,7,1,4,8554.1,229,239,144,32,3.2,10,10
10110,18,7,1,2,8554.1,229,239,144,32,1165.1,11,9
10210,18,7,1,1,8554.1,229,239,144,32,500.1,12,8
10310,18,7,1,2,8554.1,229,239,144,32,1067.3,13,7
10410,18,7,1,4,8554.1,229,239,144,32,178,14,6
10511,18,7,1,2,8554.1,229,239,144,32,297.9,15,5
10613,18,7,1,1,8554.1,229,239,144,32,1004.3,16,4
1073,18,7,1,3,8554.1,229,239,144,32,244.1,17,3
1083,18,7,1,4,8554.1,229,239,144,32,369.1,18,2
1096,18,7,1,1,8554.1,229,239,144,32,212.8,19,1
11011,18,8,0,1,6386.3,271,207,5,187,427.71,1,14
11110,18,8,0,2,6386.3,271,207,5,187,286.95,2,13
1123,18,8,0,4,6386.3,271,207,5,187,365.4,3,12
1133,18,8,0,1,6386.3,271,207,5,187,235.1,4,11
1149,18,8,0,2,6386.3,271,207,5,187,377.9,5,10
11511,18,8,0,4,6386.3,271,207,5,187,386.1,6,9
11612,18,8,0,2,6386.3,271,207,5,187,559,7,8
11710,18,8,0,4,6386.3,271,207,5,187,412.1,8,7
1182,18,8,0,3,6386.3,271,207,5,187,753.9,9,6
1197,18,8,0,2,6386.3,271,207,5,187,331.8,10,5
1201,18,8,0,1,6386.3,271,207,5,187,240,11,4
12110,18,8,0,3,6386.3,271,207,5,187,150.9,12,3
1225,18,8,0,1,6386.3,271,207,5,187,215.1,13,2
12310,18,8,0,2,6386.3,271,207,5,187,968.4,14,1
1312,18,10,1,1,9114.2,252,279,217,84,34.41,1,21
1322,18,10,1,2,9114.2,252,279,217,84,329.03,2,20
1334,18,10,1,4,9114.2,252,279,217,84,204.01,3,19
1342,18,10,1,3,9114.2,252,279,217,84,297.2,4,18
1353,18,10,1,1,9114.2,252,279,217,84,123.1,5,17
1363,18,10,1,4,9114.2,252,279,217,84,281,6,16
1371,18,10,1,3,9114.2,252,279,217,84,396.7,7,15
1381,18,10,1,1,9114.2,252,279,217,84,711,8,14
1391,18,10,1,3,9114.2,252,279,217,84,390.1,9,13
14010,18,10,1,1,9114.2,252,279,217,84,692.2,10,12
1417,18,10,1,3,9114.2,252,279,217,84,403.9,11,11
14210,18,10,1,4,9114.2,252,279,217,84,205.9,12,10
14310,18,10,1,2,9114.2,252,279,217,84,760,13,9
14410,18,10,1,1,9114.2,252,279,217,84,259.1,14,8
14510,18,10,1,3,9114.2,252,279,217,84,206.9,15,7
1464,18,10,1,1,9114.2,252,279,217,84,249.2,16,6
14712,18,10,1,4,9114.2,252,279,217,84,703.8,17,5
14812,18,10,1,2,9114.2,252,279,217,84,745,18,4
14912,18,10,1,4,9114.2,252,279,217,84,495.7,19,3
15010,18,10,1,3,9114.2,252,279,217,84,354,20,2
1512,18,10,1,1,9114.2,252,279,217,84,143.8,21,1
1742,18,12,0,1,5927.8,265,248,69,155,348.1,1,13
1752,18,12,0,2,5927.8,265,248,69,155,386.43,2,12
1762,18,12,0,1,5927.8,265,248,69,155,66.04,3,11
1774,18,12,0,3,5927.8,265,248,69,155,363.9,4,10
1781,18,12,0,4,5927.8,265,248,69,155,465.2,5,9
17910,18,12,0,2,5927.8,265,248,69,155,393.1,6,8
1801,18,12,0,1,5927.8,265,248,69,155,337,7,7
1812,18,12,0,4,5927.8,265,248,69,155,760,8,6
1822,18,12,0,2,5927.8,265,248,69,155,222.1,9,5
1832,18,12,0,1,5927.8,265,248,69,155,218,10,4
1842,18,12,0,3,5927.8,265,248,69,155,574,11,3
1851,18,12,0,4,5927.8,265,248,69,155,312,12,2
186,18,12,0,2,5927.8,265,248,69,155,472.5,13,1
2004,18,14,1,1,3143.4,250,281,171,62,61.41,1,8
2013,18,14,1,2,3143.4,250,281,171,62,329.04,2,7
2024,18,14,1,4,3143.4,250,281,171,62,288.09,3,6
2031,18,14,1,3,3143.4,250,281,171,62,372,4,5
2049,18,14,1,1,3143.4,250,281,171,62,448.1,5,4
2052,18,14,1,2,3143.4,250,281,171,62,341,6,3
2062,18,14,1,3,3143.4,250,281,171,62,369,7,2
2072,18,14,1,4,3143.4,250,281,171,62,221.6,8,1
2272,18,17,0,3,4363.6,267,200,30,154,7.45,1,9
2281,18,17,0,4,4363.6,267,200,30,154,242,2,8
2292,18,17,0,2,4363.6,267,200,30,154,460,3,7
2303,18,17,0,4,4363.6,267,200,30,154,533,4,6
2313,18,17,0,2,4363.6,267,200,30,154,512.1,5,5
2324,18,17,0,4,4363.6,267,200,30,154,2.9,6,4
2334,18,17,0,1,4363.6,267,200,30,154,345.3,7,3
2345,18,17,0,3,4363.6,267,200,30,154,344.9,8,2
2354,18,17,0,4,4363.6,267,200,30,154,175.6,9,1
244,18,19,0,2,4954.2,273,250,102,241,100.11,1,12
245,18,19,0,1,4954.2,273,250,102,241,92.95,2,11
2461,18,19,0,3,4954.2,273,250,102,241,151,3,10
2471,18,19,0,1,4954.2,273,250,102,241,383.1,4,9
2481,18,19,0,4,4954.2,273,250,102,241,363,5,8
2492,18,19,0,3,4954.2,273,250,102,241,4.9,6,7
2502,18,19,0,1,4954.2,273,250,102,241,394.1,7,6
2511,18,19,0,3,4954.2,273,250,102,241,328.5,8,5
2521,18,19,0,2,4954.2,273,250,102,241,437.1,9,4
2531,18,19,0,4,4954.2,273,250,102,241,423.1,10,3
2541,18,19,0,2,4954.2,273,250,102,241,476.1,11,2
2552,18,19,0,4,4954.2,273,250,102,241,221.3,12,1
3091,18,24,0,4,2707.5,295,260,61,240,86.96,1,6
3101,18,24,0,2,2707.5,295,260,61,240,354,2,5
3111,18,24,0,4,2707.5,295,260,61,240,352.1,3,4
312,18,24,0,3,2707.5,295,260,61,240,267.9,4,3
313,18,24,0,1,2707.5,295,260,61,240,404.9,5,2
3141,18,24,0,2,2707.5,295,260,61,240,136.5,6,1
3151,18,25,1,2,3847.6,200,235,155,50,391.25,1,8
3162,18,25,1,4,3847.6,200,235,155,50,243.81,2,7
3172,18,25,1,3,3847.6,200,235,155,50,273,3,6
3182,18,25,1,1,3847.6,200,235,155,50,688.2,4,5
3193,18,25,1,3,3847.6,200,235,155,50,325.9,5,4
3201,18,25,1,1,3847.6,200,235,155,50,173.5,6,3
3211,18,25,1,2,3847.6,200,235,155,50,533,7,2
3222,18,25,1,1,3847.6,200,235,155,50,387.3,8,1
3232,18,26,1,4,6521,246,289,188,116,348.51,1,14
3241,18,26,1,3,6521,246,289,188,116,474.1,2,13
3253,18,26,1,1,6521,246,289,188,116,548.1,3,12
3263,18,26,1,3,6521,246,289,188,116,496,4,11
3273,18,26,1,1,6521,246,289,188,116,404.2,5,10
3283,18,26,1,2,6521,246,289,188,116,238.3,6,9
3292,18,26,1,4,6521,246,289,188,116,451.1,7,8
3303,18,26,1,3,6521,246,289,188,116,176.1,8,7
3313,18,26,1,1,6521,246,289,188,116,468,9,6
3322,18,26,1,2,6521,246,289,188,116,444,10,5
3332,18,26,1,1,6521,246,289,188,116,263.1,11,4
3343,18,26,1,2,6521,246,289,188,116,285.1,12,3
3353,18,26,1,1,6521,246,289,188,116,4,13,2
3363,18,26,1,3,6521,246,289,188,116,2,14,1
4094,18,33,0,2,6640.9,232,287,214,20,232.79,1,14
4104,18,33,0,1,6640.9,232,287,214,20,240.89,2,13
4114,18,33,0,3,6640.9,232,287,214,20,350.96,3,12
4124,18,33,0,1,6640.9,232,287,214,20,495.8,4,11
4133,18,33,0,4,6640.9,232,287,214,20,321.9,5,10
4141,18,33,0,2,6640.9,232,287,214,20,327.1,6,9
415,18,33,0,4,6640.9,232,287,214,20,315.1,7,8
416,18,33,0,3,6640.9,232,287,214,20,49.1,8,7
417,18,33,0,1,6640.9,232,287,214,20,231.9,9,6
4181,18,33,0,2,6640.9,232,287,214,20,435.9,10,5
4191,18,33,0,1,6640.9,232,287,214,20,667.1,11,4
420,18,33,0,3,6640.9,232,287,214,20,684.2,12,3
4211,18,33,0,4,6640.9,232,287,214,20,2,13,2
4221,18,33,0,2,6640.9,232,287,214,20,737.1,14,1
4532,18,37,1,2,3341.2,220,250,202,20,329.16,1,10
4542,18,37,1,1,3341.2,220,250,202,20,161.91,2,9
4554,18,37,1,3,3341.2,220,250,202,20,244.2,3,8
4564,18,37,1,4,3341.2,220,250,202,20,186.1,4,7
4572,18,37,1,3,3341.2,220,250,202,20,192.1,5,6
4582,18,37,1,1,3341.2,220,250,202,20,413.6,6,5
4591,18,37,1,3,3341.2,220,250,202,20,356.2,7,4
460,18,37,1,1,3341.2,220,250,202,20,193.1,8,3
4611,18,37,1,2,3341.2,220,250,202,20,224.9,9,2
462,18,37,1,4,3341.2,220,250,202,20,240,10,1
4892,18,39,1,1,4082.8,186,272,153,12,46.1,1,8
4901,18,39,1,4,4082.8,186,272,153,12,353,2,7
4911,18,39,1,2,4082.8,186,272,153,12,281.1,3,6
4921,18,39,1,4,4082.8,186,272,153,12,170.1,4,5
4931,18,39,1,3,4082.8,186,272,153,12,265.1,5,4
4941,18,39,1,1,4082.8,186,272,153,12,508.9,6,3
4953,18,39,1,3,4082.8,186,272,153,12,360.6,7,2
4963,18,39,1,2,4082.8,186,272,153,12,355,8,1
5681,18,46,1,2,6090.6,250,280,212,49,337.92,1,15
5691,18,46,1,4,6090.6,250,280,212,49,241.14,2,14
5702,18,46,1,3,6090.6,250,280,212,49,207.23,3,13
5712,18,46,1,1,6090.6,250,280,212,49,320.9,4,12
5722,18,46,1,4,6090.6,250,280,212,49,320,5,11
5732,18,46,1,1,6090.6,250,280,212,49,383.8,6,10
5741,18,46,1,2,6090.6,250,280,212,49,391.9,7,9
5751,18,46,1,1,6090.6,250,280,212,49,174.9,8,8
5761,18,46,1,3,6090.6,250,280,212,49,404.1,9,7
5772,18,46,1,1,6090.6,250,280,212,49,513.6,10,6
5782,18,46,1,3,6090.6,250,280,212,49,207,11,5
5792,18,46,1,4,6090.6,250,280,212,49,341.1,12,4
5801,18,46,1,2,6090.6,250,280,212,49,129,13,3
5811,18,46,1,1,6090.6,250,280,212,49,7,14,2
5821,18,46,1,3,6090.6,250,280,212,49,920,15,1
602,18,48,0,2,8765.2,252,241,97,180,60.17,1,16
6031,18,48,0,4,8765.2,252,241,97,180,397.23,2,15
6042,18,48,0,2,8765.2,252,241,97,180,330.6,3,14
6051,18,48,0,1,8765.2,252,241,97,180,318.7,4,13
6062,18,48,0,3,8765.2,252,241,97,180,357,5,12
6071,18,48,0,1,8765.2,252,241,97,180,384.9,6,11
6081,18,48,0,2,8765.2,252,241,97,180,429.1,7,10
6091,18,48,0,1,8765.2,252,241,97,180,828.1,8,9
6101,18,48,0,2,8765.2,252,241,97,180,305.1,9,8
6111,18,48,0,4,8765.2,252,241,97,180,1,10,7
612,18,48,0,1,8765.2,252,241,97,180,153.8,11,6
613,18,48,0,3,8765.2,252,241,97,180,388,12,5
614,18,48,0,4,8765.2,252,241,97,180,338.8,13,4
615,18,48,0,2,8765.2,252,241,97,180,272.3,14,3
6161,18,48,0,4,8765.2,252,241,97,180,1399.9,15,2
6171,18,48,0,2,8765.2,252,241,97,180,47.4,16,1
6383,18,50,1,2,3493.8,245,255,240,33,184.35,1,9
6393,18,50,1,1,3493.8,245,255,240,33,449.99,2,8
6401,18,50,1,2,3493.8,245,255,240,33,305,3,7
6412,18,50,1,4,3493.8,245,255,240,33,225.2,4,6
6421,18,50,1,3,3493.8,245,255,240,33,367,5,5
6432,18,50,1,1,3493.8,245,255,240,33,522,6,4
6442,18,50,1,2,3493.8,245,255,240,33,295,7,3
6452,18,50,1,3,3493.8,245,255,240,33,0.8,8,2
6462,18,50,1,1,3493.8,245,255,240,33,172.5,9,1
667,18,53,1,2,6751.4,256,278,250,69,199.24,1,12
6681,18,53,1,1,6751.4,256,278,250,69,221.77,2,11
6691,18,53,1,2,6751.4,256,278,250,69,529.9,3,10
6702,18,53,1,1,6751.4,256,278,250,69,351.9,4,9
6714,18,53,1,3,6751.4,256,278,250,69,164.9,5,8
6722,18,53,1,4,6751.4,256,278,250,69,7,6,7
6733,18,53,1,2,6751.4,256,278,250,69,653.9,7,6
6742,18,53,1,4,6751.4,256,278,250,69,226.2,8,5
6752,18,53,1,3,6751.4,256,278,250,69,291.1,9,4
6762,18,53,1,1,6751.4,256,278,250,69,431.1,10,3
6772,18,53,1,2,6751.4,256,278,250,69,415.3,11,2
6781,18,53,1,3,6751.4,256,278,250,69,2321.5,12,1
6931,18,55,1,4,4994.2,267,282,250,50,17.9,1,8
6941,18,55,1,3,4994.2,267,282,250,50,202.5,2,7
6951,18,55,1,1,4994.2,267,282,250,50,473,3,6
6961,18,55,1,3,4994.2,267,282,250,50,330,4,5
6972,18,55,1,2,4994.2,267,282,250,50,577.1,5,4
6982,18,55,1,4,4994.2,267,282,250,50,753.8,6,3
6992,18,55,1,3,4994.2,267,282,250,50,610.9,7,2
7003,18,55,1,1,4994.2,267,282,250,50,245.4,8,1
7422,18,60,0,3,5354.4,261,216,31,183,212.8,1,12
7431,18,60,0,1,5354.4,261,216,31,183,309.11,2,11
7441,18,60,0,2,5354.4,261,216,31,183,193.05,3,10
7451,18,60,0,3,5354.4,261,216,31,183,386.6,4,9
746,18,60,0,1,5354.4,261,216,31,183,154.1,5,8
747,18,60,0,2,5354.4,261,216,31,183,354,6,7
748,18,60,0,4,5354.4,261,216,31,183,564.9,7,6
749,18,60,0,2,5354.4,261,216,31,183,541.9,8,5
7501,18,60,0,4,5354.4,261,216,31,183,378,9,4
7512,18,60,0,2,5354.4,261,216,31,183,270.9,10,3
7521,18,60,0,4,5354.4,261,216,31,183,74,11,2
7531,18,60,0,2,5354.4,261,216,31,183,46.1,12,1
8121,18,64,1,1,5907.5,241,261,220,60,215.09,1,17
8131,18,64,1,2,5907.5,241,261,220,60,370.07,2,16
8141,18,64,1,1,5907.5,241,261,220,60,429.02,3,15
8152,18,64,1,3,5907.5,241,261,220,60,196,4,14
8162,18,64,1,4,5907.5,241,261,220,60,214.2,5,13
8172,18,64,1,2,5907.5,241,261,220,60,240.9,6,12
8182,18,64,1,1,5907.5,241,261,220,60,421.1,7,11
8192,18,64,1,2,5907.5,241,261,220,60,261,8,10
8202,18,64,1,4,5907.5,241,261,220,60,249.1,9,9
8212,18,64,1,3,5907.5,241,261,220,60,305.9,10,8
8221,18,64,1,1,5907.5,241,261,220,60,455,11,7
8231,18,64,1,2,5907.5,241,261,220,60,137,12,6
824,18,64,1,4,5907.5,241,261,220,60,1,13,5
825,18,64,1,3,5907.5,241,261,220,60,61,14,4
826,18,64,1,1,5907.5,241,261,220,60,405,15,3
827,18,64,1,2,5907.5,241,261,220,60,294.2,16,2
8281,18,64,1,1,5907.5,241,261,220,60,349,17,1
8761,18,67,1,3,6637.3,231,268,193,159,279.1,1,14
8771,18,67,1,1,6637.3,231,268,193,159,207,2,13
8781,18,67,1,3,6637.3,231,268,193,159,139,3,12
879,18,67,1,1,6637.3,231,268,193,159,192.1,4,11
880,18,67,1,3,6637.3,231,268,193,159,432.1,5,10
881,18,67,1,4,6637.3,231,268,193,159,315.9,6,9
882,18,67,1,2,6637.3,231,268,193,159,318,7,8
883,18,67,1,4,6637.3,231,268,193,159,881,8,7
884,18,67,1,3,6637.3,231,268,193,159,555,9,6
8851,18,67,1,1,6637.3,231,268,193,159,412.9,10,5
8861,18,67,1,2,6637.3,231,268,193,159,374.1,11,4
8871,18,67,1,3,6637.3,231,268,193,159,1,12,3
8881,18,67,1,4,6637.3,231,268,193,159,242,13,2
8891,18,67,1,1,6637.3,231,268,193,159,111,14,1
9001,18,69,0,1,3474.6,290,262,111,258,116.9,1,8
901,18,69,0,3,3474.6,290,262,111,258,1.9,2,7
902,18,69,0,1,3474.6,290,262,111,258,177.4,3,6
903,18,69,0,3,3474.6,290,262,111,258,190.76,4,5
904,18,69,0,4,3474.6,290,262,111,258,186.09,5,4
905,18,69,0,2,3474.6,290,262,111,258,391,6,3
906,18,69,0,4,3474.6,290,262,111,258,309.1,7,2
907,18,69,0,2,3474.6,290,262,111,258,126.7,8,1
908,18,70,0,1,4057.7,277,264,30,136,60.81,1,10
9092,18,70,0,3,4057.7,277,264,30,136,2.96,2,9
9102,18,70,0,1,4057.7,277,264,30,136,331.05,3,8
9112,18,70,0,2,4057.7,277,264,30,136,645.97,4,7
9122,18,70,0,1,4057.7,277,264,30,136,168,5,6
9132,18,70,0,3,4057.7,277,264,30,136,229.9,6,5
9141,18,70,0,4,4057.7,277,264,30,136,173.9,7,4
9152,18,70,0,2,4057.7,277,264,30,136,479.1,8,3
9161,18,70,0,4,4057.7,277,264,30,136,1100.1,9,2
9171,18,70,0,2,4057.7,277,264,30,136,179.9,10,1
964,18,75,0,4,5229.4,279,200,31,197,2.8,1,12
9651,18,75,0,2,5229.4,279,200,31,197,470.19,2,11
9661,18,75,0,1,5229.4,279,200,31,197,280.8,3,10
9671,18,75,0,3,5229.4,279,200,31,197,93.3,4,9
9681,18,75,0,4,5229.4,279,200,31,197,459,5,8
9691,18,75,0,2,5229.4,279,200,31,197,398.2,6,7
9701,18,75,0,4,5229.4,279,200,31,197,381,7,6
9711,18,75,0,2,5229.4,279,200,31,197,156.8,8,5
9721,18,75,0,1,5229.4,279,200,31,197,227.3,9,4
9731,18,75,0,3,5229.4,279,200,31,197,378,10,3
9741,18,75,0,4,5229.4,279,200,31,197,148.1,11,2
9751,18,75,0,2,5229.4,279,200,31,197,56.8,12,1
985,18,77,0,1,10246.8,270,250,132,199,281.65,1,19
986,18,77,0,2,10246.8,270,250,132,199,492.98,2,18
987,18,77,0,1,10246.8,270,250,132,199,268.6,3,17
988,18,77,0,3,10246.8,270,250,132,199,353.9,4,16
989,18,77,0,4,10246.8,270,250,132,199,350,5,15
990,18,77,0,2,10246.8,270,250,132,199,666,6,14
991,18,77,0,4,10246.8,270,250,132,199,517.9,7,13
992,18,77,0,2,10246.8,270,250,132,199,325.5,8,12
993,18,77,0,4,10246.8,270,250,132,199,3421.1,9,11
994,18,77,0,3,10246.8,270,250,132,199,6,10,10
995,18,77,0,1,10246.8,270,250,132,199,237.2,11,9
9961,18,77,0,3,10246.8,270,250,132,199,144.1,12,8
9971,18,77,0,1,10246.8,270,250,132,199,228.1,13,7
9981,18,77,0,2,10246.8,270,250,132,199,123.8,14,6
9991,18,77,0,4,10246.8,270,250,132,199,439,15,5
10001,18,77,0,2,10246.8,270,250,132,199,333.1,16,4
10011,18,77,0,4,10246.8,270,250,132,199,255.9,17,3
10021,18,77,0,3,10246.8,270,250,132,199,180.9,18,2
10031,18,77,0,2,10246.8,270,250,132,199,88.6,19,1
10041,18,78,0,1,5418.9,286,260,55,137,524.93,1,9
10051,18,78,0,3,5418.9,286,260,55,137,351.11,2,8
