"","subj","trial","choice","roi","rt","upleftval","uprightval","downleftval","downrightval","fixdur","fixnum","revfixnum"
"1",11,1,1,2,1356.4,87,55,151,266,164,1,3
"2",11,1,1,4,1356.4,87,55,151,266,407.93,2,2
"3",11,1,1,1,1356.4,87,55,151,266,240.1,3,1
"8",11,4,0,2,1423,81,100,290,105,228.08,1,1
"9",11,5,1,2,1156.4,88,44,122,280,224.11,1,1
"13",11,8,1,3,1952.4,83,40,116,280,890.98,1,3
"14",11,8,1,2,1952.4,83,40,116,280,364.2,2,2
"15",11,8,1,4,1952.4,83,40,116,280,220.7,3,1
"22",11,11,1,2,1325.7,100,48,111,293,347.96,1,1
"23",11,12,0,3,2137,151,162,286,242,280.85,1,4
"24",11,12,0,2,2137,151,162,286,242,279.9,2,3
"25",11,12,0,1,2137,151,162,286,242,264.1,3,2
"26",11,12,0,4,2137,151,162,286,242,485.6,4,1
"27",11,13,0,2,973.99,27,77,296,159,307.69,1,1
"30",11,16,1,3,1630,70,40,88,258,185.19,1,3
"31",11,16,1,1,1630,70,40,88,258,168.7,2,2
"32",11,16,1,3,1630,70,40,88,258,67.5999999999999,3,1
"44",11,20,1,1,2522.3,72,50,130,252,292.84,1,5
"45",11,20,1,3,2522.3,72,50,130,252,461.93,2,4
"46",11,20,1,1,2522.3,72,50,130,252,268,3,3
"47",11,20,1,3,2522.3,72,50,130,252,263.1,4,2
"48",11,20,1,2,2522.3,72,50,130,252,509.1,5,1
"49",11,21,1,3,1336.4,73,40,162,283,249.01,1,3
"50",11,21,1,2,1336.4,73,40,162,283,294.95,2,2
"51",11,21,1,1,1336.4,73,40,162,283,240.9,3,1
"68",11,25,0,4,2219.2,106,149,260,150,306.95,1,5
"69",11,25,0,2,2219.2,106,149,260,150,171.16,2,4
"70",11,25,0,1,2219.2,106,149,260,150,206.9,3,3
"71",11,25,0,2,2219.2,106,149,260,150,248.1,4,2
"72",11,25,0,4,2219.2,106,149,260,150,616.5,5,1
"73",11,26,1,2,1417.8,156,125,226,283,374.94,1,3
"74",11,26,1,1,1417.8,156,125,226,283,133.3,2,2
"75",11,26,1,3,1417.8,156,125,226,283,259.4,3,1
"82",11,29,0,2,1003.2,70,126,270,140,316.85,1,1
"88",11,31,0,2,924.82,70,90,300,100,299.31,1,2
"89",11,31,0,4,924.82,70,90,300,100,24.44,2,1
"90",11,32,0,2,934.02,124,158,280,230,210.99,1,2
"91",11,32,0,1,934.02,124,158,280,230,33.2899999999999,2,1
"92",11,34,0,2,1426.9,100,119,285,125,429.77,1,2
"93",11,34,0,4,1426.9,100,119,285,125,415.93,2,1
"94",11,35,1,2,1142.8,60,30,64,226,259.81,1,1
"95",11,36,1,2,1636.5,91,46,186,284,271.02,1,4
"96",11,36,1,4,1636.5,91,46,186,284,229.2,2,3
"97",11,36,1,3,1636.5,91,46,186,284,280.98,3,2
"98",11,36,1,1,1636.5,91,46,186,284,123.1,4,1
"99",11,37,1,2,2149.7,150,140,160,209,461.99,1,5
"100",11,37,1,4,2149.7,150,140,160,209,453.27,2,4
"101",11,37,1,3,2149.7,150,140,160,209,228.2,3,3
"102",11,37,1,1,2149.7,150,140,160,209,407.1,4,2
"103",11,37,1,3,2149.7,150,140,160,209,175.5,5,1
"111",11,41,1,2,1019.9,141,93,187,296,167.04,1,3
"112",11,41,1,1,1019.9,141,93,187,296,207.09,2,2
"113",11,41,1,3,1019.9,141,93,187,296,156.24,3,1
"117",11,44,0,2,905.77,59,89,250,90,258.87,1,2
"118",11,44,0,4,905.77,59,89,250,90,274.92,2,1
"121",11,47,0,2,1588.8,121,135,299,232,410.85,1,3
"122",11,47,0,1,1588.8,121,135,299,232,300.82,2,2
"123",11,47,0,2,1588.8,121,135,299,232,331,3,1
"124",11,48,0,1,738.7,51,80,260,104,265.946,1,3
"125",11,48,0,2,738.7,51,80,260,104,294.39,2,2
"126",11,48,0,4,738.7,51,80,260,104,48.9200000000001,3,1
"131",11,50,1,1,1438.8,100,70,101,293,265.87,1,3
"132",11,50,1,2,1438.8,100,70,101,293,324.08,2,2
"133",11,50,1,3,1438.8,100,70,101,293,330.1,3,1
"134",11,52,1,2,647.56,70,45,99,276,174.94,1,2
"135",11,52,1,1,647.56,70,45,99,276,180.05,2,1
"136",11,53,1,2,668.39,54,13,95,281,169.04,1,2
"137",11,53,1,1,668.39,54,13,95,281,14.98,2,1
"138",11,54,0,2,772.34,47,64,283,101,188.64,1,2
"139",11,54,0,4,772.34,47,64,283,101,49.94,2,1
"140",11,55,1,3,1340.5,53,37,217,258,327.12,1,2
"141",11,55,1,1,1340.5,53,37,217,258,48.1,2,1
"142",11,56,1,2,653.26,100,70,150,245,132.07,1,2
"143",11,56,1,1,653.26,100,70,150,245,191.04,2,1
"144",11,57,0,2,682.85,55,75,269,97,374.25,1,1
"152",11,59,1,2,673.22,87,20,139,297,128.2,1,3
"153",11,59,1,1,673.22,87,20,139,297,157.91,2,2
"154",11,59,1,3,673.22,87,20,139,297,55.93,3,1
"155",11,60,1,1,1356.1,183,163,221,290,66.9,1,4
"156",11,60,1,2,1356.1,183,163,221,290,256.93,2,3
"157",11,60,1,4,1356.1,183,163,221,290,151.96,3,2
"158",11,60,1,3,1356.1,183,163,221,290,269.3,4,1
"163",11,62,1,1,1110.8,71,52,100,200,2.81999999999999,1,4
"164",11,62,1,2,1110.8,71,52,100,200,212.71,2,3
"165",11,62,1,1,1110.8,71,52,100,200,158.93,3,2
"166",11,62,1,3,1110.8,71,52,100,200,47.1999999999999,4,1
"169",11,64,1,1,1091.5,121,90,192,260,277.82,1,4
"170",11,64,1,2,1091.5,121,90,192,260,261.16,2,3
"171",11,64,1,1,1091.5,121,90,192,260,162.97,3,2
"172",11,64,1,3,1091.5,121,90,192,260,133.89,4,1
"173",11,65,1,3,814.8,100,75,108,241,65.74,1,1
"174",11,66,1,1,978.93,69,57,235,300,170.99,1,4
"175",11,66,1,2,978.93,69,57,235,300,233.85,2,3
"176",11,66,1,4,978.93,69,57,235,300,167.18,3,2
"177",11,66,1,3,978.93,69,57,235,300,52.99,4,1
"178",11,67,0,1,927.55,46,92,295,191,148.9,1,3
"179",11,67,0,2,927.55,46,92,295,191,189.97,2,2
"180",11,67,0,4,927.55,46,92,295,191,242.9,3,1
"185",11,69,1,1,1114.2,130,105,208,253,49.9,1,4
"186",11,69,1,2,1114.2,130,105,208,253,202.24,2,3
"187",11,69,1,4,1114.2,130,105,208,253,201.73,3,2
"188",11,69,1,3,1114.2,130,105,208,253,82.6,4,1
"189",11,70,0,2,1255.7,45,60,244,134,350,1,2
"190",11,70,0,4,1255.7,45,60,244,134,515.85,2,1
"191",11,71,1,2,763.75,76,60,90,160,143.82,1,3
"192",11,71,1,1,763.75,76,60,90,160,179.05,2,2
"193",11,71,1,3,763.75,76,60,90,160,90.02,3,1
"201",11,73,0,1,1123,95,146,284,158,230.89,1,3
"202",11,73,0,2,1123,95,146,284,158,227.06,2,2
"203",11,73,0,4,1123,95,146,284,158,138.66,3,1
"211",11,76,0,2,1027.5,54,85,186,126,387.01,1,2
"212",11,76,0,4,1027.5,54,85,186,126,200.84,2,1
"217",11,79,1,3,826.13,88,65,100,224,230.92,1,2
"218",11,79,1,1,826.13,88,65,100,224,37.57,2,1
"219",11,80,1,2,1262.9,242,230,250,290,252.21,1,4
"220",11,80,1,3,1262.9,242,230,250,290,279.95,2,3
"221",11,80,1,4,1262.9,242,230,250,290,184.89,3,2
"222",11,80,1,1,1262.9,242,230,250,290,154.8,4,1
"223",11,81,0,2,1825.6,92,117,236,162,800.72,1,4
"224",11,81,0,1,1825.6,92,117,236,162,6.00000000000001,2,3
"225",11,81,0,4,1825.6,92,117,236,162,319,3,2
"226",11,81,0,3,1825.6,92,117,236,162,119.6,4,1
"239",11,83,1,2,886.4,76,65,144,220,168.84,1,3
"240",11,83,1,1,886.4,76,65,144,220,145.86,2,2
"241",11,83,1,3,886.4,76,65,144,220,214.65,3,1
"243",11,85,1,2,1104.3,226,192,250,300,193.92,1,3
"244",11,85,1,1,1104.3,226,192,250,300,158.1,2,2
"245",11,85,1,3,1104.3,226,192,250,300,397.38,3,1
"246",11,86,0,2,1652.6,162,210,299,212,754.92,1,2
"247",11,86,0,4,1652.6,162,210,299,212,515.8,2,1
"248",11,87,1,1,1009.3,100,70,110,245,378.92,1,2
"249",11,87,1,3,1009.3,100,70,110,245,186.52,2,1
"250",11,88,0,2,979.33,14,56,268,185,194.82,1,2
"251",11,88,0,4,979.33,14,56,268,185,371.59,2,1
"252",11,89,0,2,1166.8,50,100,300,146,248.06,1,2
"253",11,89,0,4,1166.8,50,100,300,146,571.54,2,1
"254",11,91,1,1,1506.9,94,67,95,219,279.89,1,4
"255",11,91,1,2,1506.9,94,67,95,219,243.15,2,3
"256",11,91,1,4,1506.9,94,67,95,219,199.1,3,2
"257",11,91,1,3,1506.9,94,67,95,219,130.5,4,1
"263",11,93,1,2,974.25,95,59,110,294,194.05,1,1
"267",11,95,1,2,2062.8,99,77,221,277,229,1,5
"268",11,95,1,3,2062.8,99,77,221,277,324.11,2,4
"269",11,95,1,2,2062.8,99,77,221,277,342.8,3,3
"270",11,95,1,4,2062.8,99,77,221,277,181,4,2
"271",11,95,1,3,2062.8,99,77,221,277,250.2,5,1
"272",11,96,1,2,1247.1,60,29,195,270,9.42999999999999,1,3
"273",11,96,1,1,1247.1,60,29,195,270,55.91,2,2
"274",11,96,1,3,1247.1,60,29,195,270,153.5,3,1
"280",11,99,1,2,1709.2,90,72,208,246,187.04,1,4
"281",11,99,1,1,1709.2,90,72,208,246,148.95,2,3
"282",11,99,1,3,1709.2,90,72,208,246,424.9,3,2
"283",11,99,1,4,1709.2,90,72,208,246,541.3,4,1
"292",11,103,1,1,1332.1,82,73,129,229,140.9,1,2
"293",11,103,1,4,1332.1,82,73,129,229,363.22,2,1
"294",11,104,1,1,946.29,135,119,229,278,148.04,1,2
"295",11,104,1,3,946.29,135,119,229,278,212.03,2,1
"310",11,108,0,2,1450.1,85,117,278,125,218.91,1,4
"311",11,108,0,4,1450.1,85,117,278,125,439.01,2,3
"312",11,108,0,2,1450.1,85,117,278,125,271.9,3,2
"313",11,108,0,1,1450.1,85,117,278,125,143.1,4,1
"325",11,112,0,3,995.04,120,133,280,150,184.18,1,3
"326",11,112,0,2,995.04,120,133,280,150,298.05,2,2
"327",11,112,0,4,995.04,120,133,280,150,27.96,3,1
"331",11,114,0,2,2241.9,37,83,290,156,110.6,1,2
"332",11,114,0,4,2241.9,37,83,290,156,313.23,2,1
"333",11,115,0,2,1049.2,155,178,285,223,272.88,1,2
"334",11,115,0,4,1049.2,155,178,285,223,248,2,1
"335",11,116,0,4,1198.7,71,81,286,221,107.87,1,4
"336",11,116,0,2,1198.7,71,81,286,221,254.41,2,3
"337",11,116,0,1,1198.7,71,81,286,221,263.96,3,2
"338",11,116,0,3,1198.7,71,81,286,221,134.2,4,1
"339",11,117,0,4,1188.5,140,177,280,204,260.97,1,2
"340",11,117,0,1,1188.5,140,177,280,204,84.9,2,1
"341",11,118,0,2,1031.4,91,154,287,170,12.03,1,2
"342",11,118,0,1,1031.4,91,154,287,170,123.1,2,1
"347",11,120,1,1,1322.2,66,33,80,209,270.69,1,1
"348",11,121,0,4,867.5,50,99,300,100,20.76,1,1
"349",11,123,1,2,2245,98,86,227,274,345.85,1,5
"350",11,123,1,1,2245,98,86,227,274,40,2,4
"351",11,123,1,3,2245,98,86,227,274,290.8,3,3
"352",11,123,1,2,2245,98,86,227,274,272.9,4,2
"353",11,123,1,1,2245,98,86,227,274,9.00000000000034,5,1
"354",11,124,1,2,838.13,149,138,154,289,175.89,1,1
"355",11,125,1,2,678.27,85,55,95,285,147.85,1,1
"364",11,128,1,2,1186.4,62,55,141,267,334.95,1,2
"365",11,128,1,1,1186.4,62,55,141,267,88.9,2,1
"366",11,129,1,3,1017.9,51,24,97,221,245.92,1,4
"367",11,129,1,1,1017.9,51,24,97,221,182.05,2,3
"368",11,129,1,2,1017.9,51,24,97,221,196.97,3,2
"369",11,129,1,4,1017.9,51,24,97,221,124.15,4,1
"375",11,131,0,4,1080.8,71,82,288,119,56.48,1,3
"376",11,131,0,2,1080.8,71,82,288,119,324.73,2,2
"377",11,131,0,4,1080.8,71,82,288,119,78.1000000000001,3,1
"382",11,133,0,2,1284,88,101,287,202,259.96,1,3
"383",11,133,0,1,1284,88,101,287,202,237.98,2,2
"384",11,133,0,2,1284,88,101,287,202,15.0999999999999,3,1
"385",11,134,1,2,813.28,96,51,100,240,217.77,1,2
"386",11,134,1,1,813.28,96,51,100,240,169.86,2,1
"389",11,136,1,2,672.55,165,154,203,272,7.95999999999997,1,2
"390",11,136,1,1,672.55,165,154,203,272,38.59,2,1
"392",11,138,1,1,687.99,139,106,150,277,133.52,1,1
"393",11,139,0,2,743.34,50,82,295,226,281,1,2
"394",11,139,0,4,743.34,50,82,295,226,93.7,2,1
"395",11,140,1,2,672.26,106,69,159,300,5.89000000000001,1,2
"396",11,140,1,1,672.26,106,69,159,300,79.2,2,1
"397",11,141,1,1,618.62,68,31,112,291,49.5199999999999,1,1
"398",11,142,0,1,838.25,51,113,271,159,40.88,1,3
"399",11,142,0,2,838.25,51,113,271,159,169.99,2,2
"400",11,142,0,4,838.25,51,113,271,159,154.93,3,1
"408",11,145,0,2,676.41,89,99,292,202,235.62,1,1
"409",11,146,1,2,886.21,90,52,94,274,170,1,3
"410",11,146,1,1,886.21,90,52,94,274,176.93,2,2
"411",11,146,1,3,886.21,90,52,94,274,166.4,3,1
"412",11,147,0,2,895.26,173,191,292,218,168.04,1,2
"413",11,147,0,4,895.26,173,191,292,218,139.74,2,1
"420",11,150,1,3,1021.7,54,50,160,275,53.86,1,3
"421",11,150,1,2,1021.7,54,50,160,275,275.89,2,2
"422",11,150,1,4,1021.7,54,50,160,275,51.5100000000001,3,1
"429",11,159,0,2,1066.2,42,70,179,123,149.96,1,2
"430",11,159,0,4,1066.2,42,70,179,123,64.5,2,1
"431",11,161,0,4,1247.4,44,75,291,80,208.04,1,3
"432",11,161,0,2,1247.4,44,75,291,80,196.93,2,2
"433",11,161,0,3,1247.4,44,75,291,80,53.2000000000001,3,1
"442",11,169,1,3,1035.4,163,143,210,285,237,1,2
"443",11,169,1,4,1035.4,163,143,210,285,182.57,2,1
"450",11,172,1,1,1012.1,63,10,153,284,267.79,1,2
"451",11,172,1,4,1012.1,63,10,153,284,9.50000000000006,2,1
"457",11,174,1,1,952.04,84,74,226,272,268.99,1,3
"458",11,174,1,3,952.04,84,74,226,272,176.95,2,2
"459",11,174,1,4,952.04,84,74,226,272,219.63,3,1
"467",11,177,0,2,1185.4,40,70,159,78,446.87,1,3
"468",11,177,0,4,1185.4,40,70,159,78,225.91,2,2
"469",11,177,0,3,1185.4,40,70,159,78,106.2,3,1
"470",11,178,1,2,855.71,110,80,135,294,140.27,1,1
"478",11,181,0,2,1037.6,63,100,287,124,306.81,1,2
"479",11,181,0,4,1037.6,63,100,287,124,259.03,2,1
"480",11,182,0,2,1305.9,200,215,286,236,279.82,1,3
"481",11,182,0,4,1305.9,200,215,286,236,213.36,2,2
"482",11,182,0,3,1305.9,200,215,286,236,313.1,3,1
"486",11,186,1,4,921.63,104,87,140,280,240.87,1,3
"487",11,186,1,3,921.63,104,87,140,280,10.7999999999999,2,2
"488",11,186,1,1,921.63,104,87,140,280,174.17,3,1
"489",11,190,0,2,979.72,100,113,300,141,250.73,1,2
"490",11,190,0,4,979.72,100,113,300,141,50.8700000000001,2,1
"491",11,191,0,4,743.72,170,200,291,215,192.04,1,2
"492",11,191,0,2,743.72,170,200,291,215,246.94,2,1
"493",11,192,0,2,793.26,100,130,284,144,257.87,1,2
"494",11,192,0,4,793.26,100,130,284,144,116.17,2,1
"496",11,194,1,3,850.01,100,76,150,257,257.1,1,1
"7",14,2,1,1,4079.4,156,125,226,283,231.93,1,9
"81",14,2,1,2,4079.4,156,125,226,283,374.11,2,8
"910",14,2,1,1,4079.4,156,125,226,283,282.95,3,7
"10",14,2,1,3,4079.4,156,125,226,283,343.3,4,6
"11",14,2,1,1,4079.4,156,125,226,283,814,5,5
"12",14,2,1,2,4079.4,156,125,226,283,225.1,6,4
"1310",14,2,1,4,4079.4,156,125,226,283,549.1,7,3
"145",14,2,1,3,4079.4,156,125,226,283,183.1,8,2
"151",14,2,1,1,4079.4,156,125,226,283,680.6,9,1
"21",14,4,0,2,2737.5,91,154,287,170,147.87,1,7
"229",14,4,0,4,2737.5,91,154,287,170,294.09,2,6
"231",14,4,0,3,2737.5,91,154,287,170,266.05,3,5
"2410",14,4,0,1,2737.5,91,154,287,170,275.9,4,4
"259",14,4,0,2,2737.5,91,154,287,170,262.1,5,3
"261",14,4,0,4,2737.5,91,154,287,170,425.1,6,2
"275",14,4,0,2,2737.5,91,154,287,170,466.4,7,1
"54",14,8,0,1,3162,27,77,296,159,205.94,1,8
"55",14,8,0,2,3162,27,77,296,159,375.02,2,7
"56",14,8,0,4,3162,27,77,296,159,431.15,3,6
"57",14,8,0,3,3162,27,77,296,159,188,4,5
"58",14,8,0,2,3162,27,77,296,159,625.2,5,4
"59",14,8,0,1,3162,27,77,296,159,36.8999999999997,6,3
"60",14,8,0,3,3162,27,77,296,159,343,7,2
"61",14,8,0,4,3162,27,77,296,159,156.5,8,1
"7110",14,10,1,1,2952,119,100,125,285,200.1,1,7
"724",14,10,1,2,2952,119,100,125,285,397.98,2,6
"731",14,10,1,4,2952,119,100,125,285,393.17,3,5
"7410",14,10,1,1,2952,119,100,125,285,219,4,4
"7510",14,10,1,3,2952,119,100,125,285,308.1,5,3
"76",14,10,1,2,2952,119,100,125,285,447.1,6,2
"77",14,10,1,1,2952,119,100,125,285,386.8,7,1
"881",14,13,1,1,1970.6,78,55,90,290,140.89,1,6
"891",14,13,1,4,1970.6,78,55,90,290,315,2,5
"902",14,13,1,2,1970.6,78,55,90,290,204.86,3,4
"911",14,13,1,1,1970.6,78,55,90,290,81,4,3
"921",14,13,1,3,1970.6,78,55,90,290,301.9,5,2
"931",14,13,1,1,1970.6,78,55,90,290,209.2,6,1
"9410",14,14,0,2,3710.9,80,110,294,135,764.91,1,7
"951",14,14,0,1,3710.9,80,110,294,135,221.1,2,6
"9610",14,14,0,3,3710.9,80,110,294,135,259.2,3,5
"9710",14,14,0,4,3710.9,80,110,294,135,11.8,4,4
"981",14,14,0,2,3710.9,80,110,294,135,422.2,5,3
"9910",14,14,0,1,3710.9,80,110,294,135,519,6,2
"10010",14,14,0,2,3710.9,80,110,294,135,461.3,7,1
"1011",14,15,0,1,4672,62,55,141,267,244.8,1,7
"1022",14,15,0,2,4672,62,55,141,267,318.94,2,6
"1031",14,15,0,1,4672,62,55,141,267,473,3,5
"104",14,15,0,3,4672,62,55,141,267,253.2,4,4
"105",14,15,0,4,4672,62,55,141,267,590.1,5,3
"106",14,15,0,2,4672,62,55,141,267,513.9,6,2
"107",14,15,0,4,4672,62,55,141,267,203.9,7,1
"108",14,16,1,1,2136.2,113,100,141,300,169.04,1,6
"109",14,16,1,2,2136.2,113,100,141,300,285.07,2,5
"110",14,16,1,3,2136.2,113,100,141,300,216,3,4
"1114",14,16,1,4,2136.2,113,100,141,300,312,4,3
"11210",14,16,1,2,2136.2,113,100,141,300,241.9,5,2
"11310",14,16,1,1,2136.2,113,100,141,300,206.1,6,1
"114",14,17,1,1,1256.4,88,65,100,224,219.85,1,3
"115",14,17,1,2,1256.4,88,65,100,224,295.99,2,2
"116",14,17,1,1,1256.4,88,65,100,224,462.33,3,1
"1171",14,18,1,1,4094.1,90,70,100,300,5.91999999999998,1,7
"11810",14,18,1,2,4094.1,90,70,100,300,612.89,2,6
"119",14,18,1,1,4094.1,90,70,100,300,717.1,3,5
"120",14,18,1,3,4094.1,90,70,100,300,222.8,4,4
"1211",14,18,1,4,4094.1,90,70,100,300,757.1,5,3
"1221",14,18,1,3,4094.1,90,70,100,300,199,6,2
"1231",14,18,1,1,4094.1,90,70,100,300,415.9,7,1
"1241",14,19,0,2,3580.8,55,85,285,95,471.88,1,6
"1251",14,19,0,4,3580.8,55,85,285,95,704.14,2,5
"1261",14,19,0,2,3580.8,55,85,285,95,289.1,3,4
"127",14,19,0,3,3580.8,55,85,285,95,220.2,4,3
"128",14,19,0,1,3580.8,55,85,285,95,199.1,5,2
"129",14,19,0,2,3580.8,55,85,285,95,1134,6,1
"1371",14,21,1,1,2199.2,66,33,80,209,99.01,1,7
"1381",14,21,1,2,2199.2,66,33,80,209,10.95,2,6
"1391",14,21,1,4,2199.2,66,33,80,209,376.86,3,5
"1401",14,21,1,2,2199.2,66,33,80,209,179,4,4
"1411",14,21,1,1,2199.2,66,33,80,209,4.99999999999989,5,3
"1421",14,21,1,3,2199.2,66,33,80,209,313,6,2
"1431",14,21,1,1,2199.2,66,33,80,209,113.2,7,1
"1521",14,23,0,1,2546.7,55,87,266,151,5.73999999999999,1,7
"1531",14,23,0,2,2546.7,55,87,266,151,10.09,2,6
"1541",14,23,0,4,2546.7,55,87,266,151,237.92,3,5
"1551",14,23,0,3,2546.7,55,87,266,151,396.9,4,4
"1561",14,23,0,1,2546.7,55,87,266,151,339.1,5,3
"1571",14,23,0,4,2546.7,55,87,266,151,16.1,6,2
"1581",14,23,0,2,2546.7,55,87,266,151,480.5,7,1
"1851",14,28,1,1,1820.9,139,106,150,277,202.8,1,6
"1861",14,28,1,2,1820.9,139,106,150,277,284.03,2,5
"1871",14,28,1,1,1820.9,139,106,150,277,255.08,3,4
"1881",14,28,1,3,1820.9,139,106,150,277,210.9,4,3
"1891",14,28,1,4,1820.9,139,106,150,277,200.1,5,2
"1901",14,28,1,2,1820.9,139,106,150,277,342,6,1
"1911",14,29,1,1,2858.1,191,173,218,292,253.85,1,7
"1921",14,29,1,2,2858.1,191,173,218,292,368.92,2,6
"1931",14,29,1,1,2858.1,191,173,218,292,275.7,3,5
"194",14,29,1,3,2858.1,191,173,218,292,313.1,4,4
"195",14,29,1,4,2858.1,191,173,218,292,368.2,5,3
"196",14,29,1,2,2858.1,191,173,218,292,258.1,6,2
"197",14,29,1,1,2858.1,191,173,218,292,302.7,7,1
"2021",14,31,0,1,2267.5,54,97,249,174,145.53,1,6
"2031",14,31,0,2,2267.5,54,97,249,174,317.98,2,5
"204",14,31,0,4,2267.5,54,97,249,174,258.99,3,4
"205",14,31,0,2,2267.5,54,97,249,174,230,4,3
"206",14,31,0,1,2267.5,54,97,249,174,28,5,2
"207",14,31,0,3,2267.5,54,97,249,174,234.7,6,1
"208",14,32,1,1,1347.7,60,29,195,270,293.82,1,3
"209",14,32,1,3,1347.7,60,29,195,270,374.12,2,2
"210",14,32,1,4,1347.7,60,29,195,270,185.8,3,1
"2111",14,33,0,2,996.32,46,92,295,191,504.86,1,2
"2121",14,33,0,4,996.32,46,92,295,191,143.63,2,1
"2191",14,35,0,2,2246.5,52,69,282,176,508.89,1,4
"2201",14,35,0,1,2246.5,52,69,282,176,74.61,2,3
"2211",14,35,0,4,2246.5,52,69,282,176,453.9,3,2
"2221",14,35,0,2,2246.5,52,69,282,176,578.8,4,1
"2231",14,36,1,2,2223.7,76,60,90,160,199.92,1,6
"2241",14,36,1,1,2223.7,76,60,90,160,309.04,2,5
"2251",14,36,1,3,2223.7,76,60,90,160,237.14,3,4
"2261",14,36,1,4,2223.7,76,60,90,160,289.1,4,3
"227",14,36,1,2,2223.7,76,60,90,160,436.1,5,2
"228",14,36,1,1,2223.7,76,60,90,160,6.29999999999997,6,1
"236",14,38,1,2,1738,100,48,111,293,203.96,1,4
"237",14,38,1,1,1738,100,48,111,293,785.21,2,3
"238",14,38,1,3,1738,100,48,111,293,228,3,2
"2391",14,38,1,4,1738,100,48,111,293,207.8,4,1
"2401",14,39,0,1,2173.2,85,117,278,125,198.9,1,6
"2411",14,39,0,2,2173.2,85,117,278,125,406.9,2,5
"242",14,39,0,3,2173.2,85,117,278,125,318.95,3,4
"2431",14,39,0,4,2173.2,85,117,278,125,511.1,4,3
"2441",14,39,0,2,2173.2,85,117,278,125,221,5,2
"2451",14,39,0,1,2173.2,85,117,278,125,10.1,6,1
"2511",14,41,1,1,3136.1,81,71,221,286,207.81,1,8
"2521",14,41,1,2,3136.1,81,71,221,286,292.04,2,7
"2531",14,41,1,1,3136.1,81,71,221,286,247.95,3,6
"2541",14,41,1,4,3136.1,81,71,221,286,656,4,5
"2551",14,41,1,2,3136.1,81,71,221,286,373,5,4
"2561",14,41,1,1,3136.1,81,71,221,286,192,6,3
"2571",14,41,1,3,3136.1,81,71,221,286,212.9,7,2
"258",14,41,1,4,3136.1,81,71,221,286,211.7,8,1
"289",14,46,0,1,1823.6,163,183,290,221,211.98,1,3
"290",14,46,0,2,1823.6,163,183,290,221,424.18,2,2
"291",14,46,0,4,1823.6,163,183,290,221,469.4,3,1
"2921",14,47,1,1,3091.4,165,154,203,272,427.72,1,7
"2931",14,47,1,2,3091.4,165,154,203,272,571.07,2,6
"2941",14,47,1,1,3091.4,165,154,203,272,293.1,3,5
"2951",14,47,1,3,3091.4,165,154,203,272,252.8,4,4
"296",14,47,1,4,3091.4,165,154,203,272,373.1,5,3
"297",14,47,1,2,3091.4,165,154,203,272,305,6,2
"298",14,47,1,1,3091.4,165,154,203,272,304.3,7,1
"299",14,48,1,1,3501.7,101,88,202,287,282.98,1,8
"300",14,48,1,2,3501.7,101,88,202,287,588.13,2,7
"301",14,48,1,1,3501.7,101,88,202,287,167.1,3,6
"302",14,48,1,3,3501.7,101,88,202,287,176.9,4,5
"303",14,48,1,4,3501.7,101,88,202,287,454,5,4
"304",14,48,1,2,3501.7,101,88,202,287,131.9,6,3
"305",14,48,1,1,3501.7,101,88,202,287,231,7,2
"306",14,48,1,2,3501.7,101,88,202,287,309,8,1
"307",14,49,1,1,1829,200,170,215,291,200.03,1,6
"308",14,49,1,2,1829,200,170,215,291,402.09,2,5
"309",14,49,1,1,1829,200,170,215,291,4.19999999999998,3,4
"3101",14,49,1,3,1829,200,170,215,291,235,4,3
"3111",14,49,1,4,1829,200,170,215,291,248.9,5,2
"3121",14,49,1,1,1829,200,170,215,291,280.3,6,1
"3131",14,50,1,1,2260.4,121,90,192,260,234.86,1,6
"314",14,50,1,2,2260.4,121,90,192,260,265.87,2,5
"315",14,50,1,3,2260.4,121,90,192,260,438.99,3,4
"316",14,50,1,4,2260.4,121,90,192,260,284.3,4,3
"317",14,50,1,2,2260.4,121,90,192,260,258.1,5,2
"318",14,50,1,1,2260.4,121,90,192,260,336,6,1
"3401",14,54,1,1,1392.1,82,71,119,288,205,1,4
"3411",14,54,1,2,1392.1,82,71,119,288,385.2,2,3
"3421",14,54,1,1,1392.1,82,71,119,288,269.81,3,2
"343",14,54,1,3,1392.1,82,71,119,288,162.2,4,1
"344",14,55,0,1,3828.7,121,135,299,232,269.89,1,8
"345",14,55,0,2,3828.7,121,135,299,232,792.91,2,7
"346",14,55,0,1,3828.7,121,135,299,232,401.1,3,6
"3471",14,55,0,2,3828.7,121,135,299,232,624.1,4,5
"3481",14,55,0,3,3828.7,121,135,299,232,189.8,5,4
"3491",14,55,0,2,3828.7,121,135,299,232,469.4,6,3
"3501",14,55,0,4,3828.7,121,135,299,232,321,7,2
"3511",14,55,0,2,3828.7,121,135,299,232,35.0000000000001,8,1
"3521",14,56,1,1,2172.6,133,120,150,280,259.11,1,7
"3531",14,56,1,2,2172.6,133,120,150,280,179.95,2,6
"3541",14,56,1,4,2172.6,133,120,150,280,234.01,3,5
"3551",14,56,1,3,2172.6,133,120,150,280,225.39,4,4
"356",14,56,1,4,2172.6,133,120,150,280,204.1,5,3
"357",14,56,1,2,2172.6,133,120,150,280,349.1,6,2
"358",14,56,1,1,2172.6,133,120,150,280,348.9,7,1
"359",14,57,0,1,2637.8,67,94,219,95,152.83,1,7
"360",14,57,0,2,2637.8,67,94,219,95,283.16,2,6
"361",14,57,0,4,2637.8,67,94,219,95,475.93,3,5
"362",14,57,0,2,2637.8,67,94,219,95,203.2,4,4
"363",14,57,0,3,2637.8,67,94,219,95,281,5,3
"3641",14,57,0,1,2637.8,67,94,219,95,440.9,6,2
"3651",14,57,0,2,2637.8,67,94,219,95,305.9,7,1
"371",14,59,0,1,2765,44,88,280,122,170.05,1,6
"372",14,59,0,2,2765,44,88,280,122,320.07,2,5
"373",14,59,0,4,2765,44,88,280,122,265.96,3,4
"374",14,59,0,3,2765,44,88,280,122,252.7,4,3
"3751",14,59,0,1,2765,44,88,280,122,452,5,2
"3761",14,59,0,2,2765,44,88,280,122,799.1,6,1
"3771",14,60,0,1,2357.7,100,76,150,257,389.94,1,7
"378",14,60,0,2,2357.7,100,76,150,257,204.08,2,6
"379",14,60,0,3,2357.7,100,76,150,257,144.83,3,5
"380",14,60,0,4,2357.7,100,76,150,257,250,4,4
"381",14,60,0,2,2357.7,100,76,150,257,475.9,5,3
"3821",14,60,0,1,2357.7,100,76,150,257,400.1,6,2
"3831",14,60,0,2,2357.7,100,76,150,257,48.8999999999997,7,1
"3901",14,62,0,1,2185,50,54,275,160,216.92,1,6
"391",14,62,0,2,2185,50,54,275,160,468.92,2,5
"3921",14,62,0,4,2185,50,54,275,160,225.09,3,4
"3931",14,62,0,3,2185,50,54,275,160,185.2,4,3
"3941",14,62,0,1,2185,50,54,275,160,284,5,2
"3951",14,62,0,2,2185,50,54,275,160,378.9,6,1
"3961",14,63,1,1,2597.5,226,192,250,300,141.82,1,5
"3971",14,63,1,2,2597.5,226,192,250,300,487.24,2,4
"3981",14,63,1,1,2597.5,226,192,250,300,281.92,3,3
"3991",14,63,1,3,2597.5,226,192,250,300,736.2,4,2
"4001",14,63,1,1,2597.5,226,192,250,300,574.7,5,1
"401",14,64,1,1,3387.6,117,92,162,236,828.09,1,8
"402",14,64,1,2,3387.6,117,92,162,236,364.2,2,7
"403",14,64,1,1,3387.6,117,92,162,236,421,3,6
"404",14,64,1,2,3387.6,117,92,162,236,141.8,4,5
"405",14,64,1,3,3387.6,117,92,162,236,238.1,5,4
"406",14,64,1,4,3387.6,117,92,162,236,321.7,6,3
"407",14,64,1,2,3387.6,117,92,162,236,318.8,7,2
"4081",14,64,1,1,3387.6,117,92,162,236,86.5999999999998,8,1
"4201",14,67,0,2,2039.1,50,100,300,146,173.45,1,7
"4211",14,67,0,4,2039.1,50,100,300,146,318.86,2,6
"4221",14,67,0,2,2039.1,50,100,300,146,274.99,3,5
"423",14,67,0,1,2039.1,50,100,300,146,212.1,4,4
"424",14,67,0,3,2039.1,50,100,300,146,210,5,3
"425",14,67,0,4,2039.1,50,100,300,146,359.1,6,2
"426",14,67,0,2,2039.1,50,100,300,146,46.7,7,1
"436",14,69,0,1,5619.9,200,215,286,236,271.67,1,11
"437",14,69,0,2,5619.9,200,215,286,236,426.88,2,10
"438",14,69,0,4,5619.9,200,215,286,236,181.96,3,9
"439",14,69,0,3,5619.9,200,215,286,236,337,4,8
"440",14,69,0,1,5619.9,200,215,286,236,657.1,5,7
"441",14,69,0,2,5619.9,200,215,286,236,1456.2,6,6
"4421",14,69,0,1,5619.9,200,215,286,236,214.1,7,5
"4431",14,69,0,3,5619.9,200,215,286,236,783,8,4
"444",14,69,0,4,5619.9,200,215,286,236,205.7,9,3
"445",14,69,0,2,5619.9,200,215,286,236,511,10,2
"446",14,69,0,1,5619.9,200,215,286,236,179.5,11,1
"465",14,72,0,1,1920.3,31,68,291,112,151.79,1,6
"466",14,72,0,2,1920.3,31,68,291,112,267.5,2,5
"4671",14,72,0,3,1920.3,31,68,291,112,140.96,3,4
"4681",14,72,0,4,1920.3,31,68,291,112,337.17,4,3
"4691",14,72,0,2,1920.3,31,68,291,112,412.1,5,2
"4701",14,72,0,1,1920.3,31,68,291,112,244.6,6,1
"471",14,73,0,1,3396.8,104,87,140,280,560.89,1,8
"472",14,73,0,2,3396.8,104,87,140,280,419.93,2,7
"473",14,73,0,4,3396.8,104,87,140,280,248,3,6
"474",14,73,0,1,3396.8,104,87,140,280,361.1,4,5
"475",14,73,0,2,3396.8,104,87,140,280,255,5,4
"476",14,73,0,3,3396.8,104,87,140,280,352.1,6,3
"477",14,73,0,4,3396.8,104,87,140,280,334.2,7,2
"4781",14,73,0,2,3396.8,104,87,140,280,358.4,8,1
"4791",14,74,0,1,2451.6,77,99,277,221,243.68,1,6
"4801",14,74,0,2,2451.6,77,99,277,221,377.84,2,5
"4811",14,74,0,4,2451.6,77,99,277,221,258,3,4
"4821",14,74,0,3,2451.6,77,99,277,221,257,4,3
"483",14,74,0,2,2451.6,77,99,277,221,330.1,5,2
"484",14,74,0,1,2451.6,77,99,277,221,448,6,1
"485",14,75,1,1,2067.5,126,70,140,270,429.89,1,6
"4861",14,75,1,3,2067.5,126,70,140,270,300.09,2,5
"4871",14,75,1,4,2067.5,126,70,140,270,264.03,3,4
"4881",14,75,1,2,2067.5,126,70,140,270,292.1,4,3
"4891",14,75,1,1,2067.5,126,70,140,270,293.9,5,2
"4901",14,75,1,3,2067.5,126,70,140,270,206.2,6,1
"4911",14,76,1,2,1605,70,50,100,297,176.99,1,4
"4921",14,76,1,1,1605,70,50,100,297,229.07,2,3
"4931",14,76,1,3,1605,70,50,100,297,350.09,3,2
"4941",14,76,1,1,1605,70,50,100,297,512.3,4,1
"495",14,77,1,1,2458.9,130,105,208,253,233,1,6
"4961",14,77,1,2,2458.9,130,105,208,253,488.96,2,5
"497",14,77,1,3,2458.9,130,105,208,253,292,3,4
"498",14,77,1,1,2458.9,130,105,208,253,585,4,3
"499",14,77,1,4,2458.9,130,105,208,253,288.8,5,2
"500",14,77,1,2,2458.9,130,105,208,253,92.2000000000001,6,1
"506",14,79,1,1,2691.8,149,138,154,289,320.93,1,6
"507",14,79,1,3,2691.8,149,138,154,289,328.11,2,5
"508",14,79,1,2,2691.8,149,138,154,289,553.04,3,4
"509",14,79,1,1,2691.8,149,138,154,289,312.1,4,3
"510",14,79,1,3,2691.8,149,138,154,289,702.5,5,2
"511",14,79,1,4,2691.8,149,138,154,289,161.5,6,1
"530",14,83,1,1,1477.2,100,75,108,241,264.73,1,4
"531",14,83,1,3,1477.2,100,75,108,241,257.97,2,3
"532",14,83,1,4,1477.2,100,75,108,241,311.01,3,2
"533",14,83,1,2,1477.2,100,75,108,241,328.9,4,1
"546",14,86,0,1,1793.5,59,95,294,110,168.05,1,5
"547",14,86,0,2,1793.5,59,95,294,110,356.09,2,4
"548",14,86,0,4,1793.5,59,95,294,110,297.78,3,3
"549",14,86,0,2,1793.5,59,95,294,110,353,4,2
"550",14,86,0,1,1793.5,59,95,294,110,31.1000000000001,5,1
"551",14,87,0,2,1869.5,40,70,159,78,534.78,1,4
"552",14,87,0,4,1869.5,40,70,159,78,739.92,2,3
"553",14,87,0,1,1869.5,40,70,159,78,181,3,2
"554",14,87,0,3,1869.5,40,70,159,78,54.3,4,1
"599",14,93,0,1,2997.6,45,70,276,99,208.95,1,5
"600",14,93,0,2,2997.6,45,70,276,99,457.08,2,4
"601",14,93,0,4,2997.6,45,70,276,99,508.94,3,3
"602",14,93,0,3,2997.6,45,70,276,99,326,4,2
"603",14,93,0,2,2997.6,45,70,276,99,1220.8,5,1
"604",14,94,0,1,1573.1,30,60,226,64,13.88,1,5
"605",14,94,0,2,1573.1,30,60,226,64,195.88,2,4
"606",14,94,0,4,1573.1,30,60,226,64,271.02,3,3
"607",14,94,0,3,1573.1,30,60,226,64,266.04,4,2
"608",14,94,0,1,1573.1,30,60,226,64,225.1,5,1
"615",14,96,1,1,1820.5,96,51,100,240,181.07,1,5
"616",14,96,1,4,1820.5,96,51,100,240,125.04,2,4
"617",14,96,1,3,1820.5,96,51,100,240,406.96,3,3
"618",14,96,1,1,1820.5,96,51,100,240,273.1,4,2
"619",14,96,1,2,1820.5,96,51,100,240,100.8,5,1
"625",14,98,0,1,1239.3,50,72,252,130,188.13,1,3
"626",14,98,0,2,1239.3,50,72,252,130,337.77,2,2
"627",14,98,0,4,1239.3,50,72,252,130,469.77,3,1
"635",14,100,1,1,1228.9,78,32,96,215,323.02,1,3
"636",14,100,1,3,1228.9,78,32,96,215,474.24,2,2
"637",14,100,1,1,1228.9,78,32,96,215,166.2,3,1
"638",14,101,0,1,1741.4,42,70,179,123,199.05,1,4
"639",14,101,0,2,1741.4,42,70,179,123,226.06,2,3
"640",14,101,0,4,1741.4,42,70,179,123,569.19,3,2
"641",14,101,0,2,1741.4,42,70,179,123,466.6,4,1
"642",14,102,0,2,1126.3,95,146,284,158,228.98,1,3
"643",14,102,0,4,1126.3,95,146,284,158,349.19,2,2
"644",14,102,0,2,1126.3,95,146,284,158,258.76,3,1
"645",14,103,0,2,1575.5,10,63,284,153,249.99,1,5
"646",14,103,0,4,1575.5,10,63,284,153,450.02,2,4
"647",14,103,0,3,1575.5,10,63,284,153,1.23000000000006,3,3
"648",14,103,0,1,1575.5,10,63,284,153,4.99999999999989,4,2
"649",14,103,0,2,1575.5,10,63,284,153,247.1,5,1
"650",14,104,1,3,1196.4,54,13,95,281,328.26,1,2
"651",14,104,1,4,1196.4,54,13,95,281,169.8,2,1
"652",14,105,0,2,1418.9,46,78,260,154,235.94,1,3
"653",14,105,0,4,1418.9,46,78,260,154,367.03,2,2
"654",14,105,0,2,1418.9,46,78,260,154,183.4,3,1
"655",14,106,0,2,1744.4,140,150,209,160,408.93,1,4
"656",14,106,0,1,1744.4,140,150,209,160,229.08,2,3
"657",14,106,0,4,1744.4,140,150,209,160,338.1,3,2
"658",14,106,0,3,1744.4,140,150,209,160,257.7,4,1
"659",14,107,1,2,1319.6,100,70,150,245,237.9,1,4
"660",14,107,1,1,1319.6,100,70,150,245,227.84,2,3
"661",14,107,1,3,1319.6,100,70,150,245,479.99,3,2
"662",14,107,1,1,1319.6,100,70,150,245,44.3,4,1
"663",14,108,1,2,1770.5,83,40,116,280,162.94,1,5
"664",14,108,1,1,1770.5,83,40,116,280,592.88,2,4
"665",14,108,1,3,1770.5,83,40,116,280,304,3,3
"666",14,108,1,4,1770.5,83,40,116,280,191.9,4,2
"667",14,108,1,2,1770.5,83,40,116,280,202.5,5,1
"668",14,109,1,1,1530.6,91,46,186,284,186.86,1,5
"669",14,109,1,2,1530.6,91,46,186,284,198.13,2,4
"670",14,109,1,1,1530.6,91,46,186,284,199.57,3,3
"671",14,109,1,3,1530.6,91,46,186,284,590.12,4,2
"672",14,109,1,1,1530.6,91,46,186,284,78.5,5,1
"678",14,111,1,1,1343.8,75,44,80,291,250.07,1,4
"679",14,111,1,3,1343.8,75,44,80,291,451.02,2,3
"680",14,111,1,1,1343.8,75,44,80,291,154.1,3,2
"681",14,111,1,2,1343.8,75,44,80,291,96.3000000000001,4,1
"691",14,113,1,1,1287.2,87,20,139,297,431.04,1,4
"692",14,113,1,3,1287.2,87,20,139,297,277.15,2,3
"693",14,113,1,4,1287.2,87,20,139,297,217.92,3,2
"694",14,113,1,2,1287.2,87,20,139,297,123.3,4,1
"701",14,115,1,1,1834.1,130,100,144,284,315.82,1,5
"702",14,115,1,2,1834.1,130,100,144,284,262.86,2,4
"703",14,115,1,3,1834.1,130,100,144,284,114,3,3
"704",14,115,1,4,1834.1,130,100,144,284,300.1,4,2
"705",14,115,1,1,1834.1,130,100,144,284,144.6,5,1
"706",14,116,1,1,1240.2,100,81,105,290,346.82,1,3
"707",14,116,1,3,1240.2,100,81,105,290,570.08,2,2
"708",14,116,1,1,1240.2,100,81,105,290,115.4,3,1
"709",14,117,1,1,1774.2,75,55,97,269,197.94,1,6
"710",14,117,1,3,1774.2,75,55,97,269,217.87,2,5
"711",14,117,1,1,1774.2,75,55,97,269,10.83,3,4
"712",14,117,1,2,1774.2,75,55,97,269,236.03,4,3
"713",14,117,1,4,1774.2,75,55,97,269,293,5,2
"714",14,117,1,1,1774.2,75,55,97,269,255.7,6,1
"715",14,118,0,1,3470.9,230,242,290,250,529.82,1,9
"716",14,118,0,2,3470.9,230,242,290,250,69.96,2,8
"717",14,118,0,3,3470.9,230,242,290,250,413.01,3,7
"718",14,118,0,1,3470.9,230,242,290,250,222.1,4,6
"719",14,118,0,2,3470.9,230,242,290,250,247.4,5,5
"720",14,118,0,4,3470.9,230,242,290,250,572,6,4
"721",14,118,0,2,3470.9,230,242,290,250,309.9,7,3
"722",14,118,0,1,3470.9,230,242,290,250,234,8,2
"723",14,118,0,2,3470.9,230,242,290,250,276.4,9,1
"733",14,120,1,1,2033.6,53,37,217,258,318.42,1,7
"734",14,120,1,3,2033.6,53,37,217,258,272.07,2,6
"735",14,120,1,4,2033.6,53,37,217,258,257.12,3,5
"736",14,120,1,2,2033.6,53,37,217,258,248,4,4
"737",14,120,1,1,2033.6,53,37,217,258,299.2,5,3
"738",14,120,1,3,2033.6,53,37,217,258,261.1,6,2
"739",14,120,1,4,2033.6,53,37,217,258,48.2999999999998,7,1
"740",14,121,0,1,2356.3,40,73,283,162,185.05,1,7
"741",14,121,0,2,2356.3,40,73,283,162,212.21,2,6
"742",14,121,0,4,2356.3,40,73,283,162,299.14,3,5
"743",14,121,0,3,2356.3,40,73,283,162,273.97,4,4
"744",14,121,0,1,2356.3,40,73,283,162,264,5,3
"745",14,121,0,2,2356.3,40,73,283,162,258,6,2
"746",14,121,0,4,2356.3,40,73,283,162,503.2,7,1
"747",14,122,0,1,2011.2,52,90,274,94,78.77,1,6
"748",14,122,0,2,2011.2,52,90,274,94,303.9,2,5
"749",14,122,0,4,2011.2,52,90,274,94,509.13,3,4
"750",14,122,0,2,2011.2,52,90,274,94,129,4,3
"751",14,122,0,3,2011.2,52,90,274,94,265.2,5,2
"752",14,122,0,1,2011.2,52,90,274,94,7.30000000000031,6,1
"753",14,123,0,1,3586.2,58,112,216,129,174.89,1,10
"754",14,123,0,2,3586.2,58,112,216,129,187.02,2,9
"755",14,123,0,4,3586.2,58,112,216,129,271.14,3,8
"756",14,123,0,3,3586.2,58,112,216,129,307.07,4,7
"757",14,123,0,1,3586.2,58,112,216,129,388.1,5,6
"758",14,123,0,2,3586.2,58,112,216,129,467.2,6,5
"759",14,123,0,4,3586.2,58,112,216,129,550.8,7,4
"760",14,123,0,3,3586.2,58,112,216,129,514,8,3
"761",14,123,0,4,3586.2,58,112,216,129,273.9,9,2
"762",14,123,0,2,3586.2,58,112,216,129,33.0999999999997,10,1
"768",14,125,0,2,2071.7,70,100,293,101,400.96,1,5
"769",14,125,0,4,2071.7,70,100,293,101,290.13,2,4
"770",14,125,0,2,2071.7,70,100,293,101,380.2,3,3
"771",14,125,0,1,2071.7,70,100,293,101,180,4,2
"772",14,125,0,3,2071.7,70,100,293,101,278,5,1
"773",14,126,0,2,2811.1,93,141,296,187,206.8,1,5
"774",14,126,0,4,2811.1,93,141,296,187,350.97,2,4
"775",14,126,0,3,2811.1,93,141,296,187,319.02,3,3
"776",14,126,0,1,2811.1,93,141,296,187,313,4,2
"777",14,126,0,2,2811.1,93,141,296,187,1176,5,1
"783",14,128,0,2,3613.4,47,64,283,101,520.94,1,6
"784",14,128,0,1,3613.4,47,64,283,101,2.99999999999989,2,5
"785",14,128,0,2,3613.4,47,64,283,101,1116,3,4
"786",14,128,0,4,3613.4,47,64,283,101,329,4,3
"787",14,128,0,1,3613.4,47,64,283,101,281.2,5,2
"788",14,128,0,2,3613.4,47,64,283,101,108.1,6,1
"794",14,130,1,1,1618.1,65,76,220,144,201.88,1,5
"795",14,130,1,2,1618.1,65,76,220,144,320.12,2,4
"796",14,130,1,4,1618.1,65,76,220,144,305.95,3,3
"797",14,130,1,3,1618.1,65,76,220,144,355.1,4,2
"798",14,130,1,1,1618.1,65,76,220,144,129,5,1
"836",14,136,1,1,1576.1,70,40,88,258,161.99,1,4
"837",14,136,1,3,1576.1,70,40,88,258,436.89,2,3
"838",14,136,1,1,1576.1,70,40,88,258,247.9,3,2
"839",14,136,1,2,1576.1,70,40,88,258,131.8,4,1
"840",14,137,1,2,1706.2,71,52,100,200,193.74,1,6
"841",14,137,1,1,1706.2,71,52,100,200,240.06,2,5
"842",14,137,1,3,1706.2,71,52,100,200,226.06,3,4
"843",14,137,1,4,1706.2,71,52,100,200,329.96,4,3
"844",14,137,1,2,1706.2,71,52,100,200,352.1,5,2
"845",14,137,1,1,1706.2,71,52,100,200,53.7999999999998,6,1
"846",14,138,0,1,1928.4,71,95,292,161,230.97,1,5
"847",14,138,0,2,1928.4,71,95,292,161,331.27,2,4
"848",14,138,0,4,1928.4,71,95,292,161,494.08,3,3
"849",14,138,0,2,1928.4,71,95,292,161,371.2,4,2
"850",14,138,0,1,1928.4,71,95,292,161,249,5,1
"851",14,139,1,1,1791.1,51,24,97,221,318.71,1,5
"852",14,139,1,3,1791.1,51,24,97,221,321.96,2,4
"853",14,139,1,1,1791.1,51,24,97,221,213.1,3,3
"854",14,139,1,2,1791.1,51,24,97,221,341.9,4,2
"855",14,139,1,1,1791.1,51,24,97,221,96.8,5,1
"860",14,141,0,1,2579.7,124,158,280,230,531.95,1,6
"861",14,141,0,2,2579.7,124,158,280,230,392.1,2,5
"862",14,141,0,4,2579.7,124,158,280,230,455.1,3,4
"863",14,141,0,3,2579.7,124,158,280,230,268.4,4,3
"864",14,141,0,1,2579.7,124,158,280,230,277,5,2
"865",14,141,0,2,2579.7,124,158,280,230,313.6,6,1
"870",14,143,0,2,2297.2,74,84,272,226,270.89,1,5
"871",14,143,0,4,2297.2,74,84,272,226,254.99,2,4
"872",14,143,0,3,2297.2,74,84,272,226,250,3,3
"873",14,143,0,1,2297.2,74,84,272,226,253.1,4,2
"874",14,143,0,2,2297.2,74,84,272,226,896.5,5,1
"875",14,144,0,1,1851.1,86,98,274,227,219.75,1,5
"876",14,144,0,2,1851.1,86,98,274,227,287.1,2,4
"877",14,144,0,4,1851.1,86,98,274,227,259.2,3,3
"878",14,144,0,3,1851.1,86,98,274,227,384.2,4,2
"879",14,144,0,2,1851.1,86,98,274,227,293.4,5,1
"898",14,149,0,1,1454.6,37,83,290,156,182.7,1,4
"899",14,149,0,2,1454.6,37,83,290,156,351.33,2,3
"900",14,149,0,4,1454.6,37,83,290,156,245.02,3,2
"901",14,149,0,2,1454.6,37,83,290,156,197.4,4,1
"923",14,153,0,2,1624.9,15,73,259,99,332.87,1,4
"924",14,153,0,4,1624.9,15,73,259,99,483.46,2,3
"925",14,153,0,2,1624.9,15,73,259,99,227.1,3,2
"926",14,153,0,1,1624.9,15,73,259,99,284.9,4,1
"932",14,155,0,2,2752.4,151,162,286,242,228.21,1,8
"933",14,155,0,1,2752.4,151,162,286,242,358.97,2,7
"934",14,155,0,3,2752.4,151,162,286,242,324.85,3,6
"935",14,155,0,4,2752.4,151,162,286,242,242.1,4,5
"936",14,155,0,2,2752.4,151,162,286,242,312.5,5,4
"937",14,155,0,1,2752.4,151,162,286,242,322.2,6,3
"938",14,155,0,2,2752.4,151,162,286,242,331.8,7,2
"939",14,155,0,4,2752.4,151,162,286,242,1.30000000000008,8,1
"940",14,156,0,1,1113.1,57,69,300,235,195.77,1,3
"941",14,156,0,2,1113.1,57,69,300,235,267.05,2,2
"942",14,156,0,4,1113.1,57,69,300,235,319.29,3,1
"943",14,157,0,2,1394.6,72,90,246,208,179.94,1,4
"944",14,157,0,1,1394.6,72,90,246,208,188.95,2,3
"945",14,157,0,4,1394.6,72,90,246,208,243.04,3,2
"946",14,157,0,3,1394.6,72,90,246,208,313.4,4,1
"947",14,158,1,1,1289.1,100,70,110,245,382.87,1,3
"948",14,158,1,3,1289.1,100,70,110,245,407.91,2,2
"949",14,158,1,1,1289.1,100,70,110,245,256.2,3,1
"957",14,160,1,3,1298.1,100,63,124,287,438.48,1,2
"958",14,160,1,1,1298.1,100,63,124,287,271.4,2,1
"959",14,161,1,1,1205.3,80,51,104,260,328.09,1,2
"960",14,161,1,3,1205.3,80,51,104,260,522.85,2,1
"961",14,162,1,1,2195.4,149,106,150,260,264.89,1,6
"962",14,162,1,3,2195.4,149,106,150,260,665.07,2,5
"963",14,162,1,1,2195.4,149,106,150,260,18.8999999999999,3,4
"964",14,162,1,2,2195.4,149,106,150,260,353,4,3
"965",14,162,1,4,2195.4,149,106,150,260,281,5,2
"966",14,162,1,1,2195.4,149,106,150,260,211.3,6,1
"967",14,163,0,1,1914.1,95,110,221,150,248.9,1,4
"968",14,163,0,2,1914.1,95,110,221,150,445.08,2,3
"969",14,163,0,4,1914.1,95,110,221,150,491.17,3,2
"970",14,163,0,2,1914.1,95,110,221,150,483.3,4,1
"971",14,164,0,2,3611.5,89,99,292,202,298.87,1,9
"972",14,164,0,4,3611.5,89,99,292,202,568.26,2,8
"973",14,164,0,1,3611.5,89,99,292,202,400.9,3,7
"974",14,164,0,3,3611.5,89,99,292,202,287.1,4,6
"975",14,164,0,2,3611.5,89,99,292,202,503.2,5,5
"976",14,164,0,4,3611.5,89,99,292,202,261,6,4
"977",14,164,0,2,3611.5,89,99,292,202,244.1,7,3
"978",14,164,0,1,3611.5,89,99,292,202,275.1,8,2
"979",14,164,0,2,3611.5,89,99,292,202,51.2999999999999,9,1
"989",14,167,1,1,2982.3,163,143,210,285,366.86,1,7
"990",14,167,1,2,2982.3,163,143,210,285,264.84,2,6
"991",14,167,1,3,2982.3,163,143,210,285,396.9,3,5
"992",14,167,1,1,2982.3,163,143,210,285,486.2,4,4
"993",14,167,1,4,2982.3,163,143,210,285,129,5,3
"994",14,167,1,2,2982.3,163,143,210,285,164,6,2
"995",14,167,1,1,2982.3,163,143,210,285,262.1,7,1
"996",14,168,1,1,3345.4,164,132,203,297,222.89,1,8
"997",14,168,1,2,3345.4,164,132,203,297,533.17,2,7
"998",14,168,1,1,3345.4,164,132,203,297,327.9,3,6
"999",14,168,1,3,3345.4,164,132,203,297,312.1,4,5
"1000",14,168,1,4,3345.4,164,132,203,297,264.5,5,4
"1001",14,168,1,2,3345.4,164,132,203,297,409.1,6,3
"1002",14,168,1,1,3345.4,164,132,203,297,261.1,7,2
"1003",14,168,1,2,3345.4,164,132,203,297,88.0000000000001,8,1
"1004",14,169,1,1,2641.5,178,155,223,285,427.01,1,6
"1005",14,169,1,2,2641.5,178,155,223,285,481.15,2,5
"1006",14,169,1,1,2641.5,178,155,223,285,454,3,4
"1007",14,169,1,3,2641.5,178,155,223,285,527.2,4,3
"1008",14,169,1,1,2641.5,178,155,223,285,224,5,2
"1009",14,169,1,2,2641.5,178,155,223,285,161.8,6,1
"1015",14,171,1,1,2634.4,89,59,90,250,265.76,1,7
"1016",14,171,1,3,2634.4,89,59,90,250,689.94,2,6
"1017",14,171,1,1,2634.4,89,59,90,250,172.1,3,5
"1018",14,171,1,2,2634.4,89,59,90,250,182.9,4,4
"1019",14,171,1,4,2634.4,89,59,90,250,310.1,5,3
"1020",14,171,1,2,2634.4,89,59,90,250,326,6,2
"1021",14,171,1,1,2634.4,89,59,90,250,283,7,1
"1034",14,174,1,1,3626.3,119,135,278,229,264.88,1,9
"1035",14,174,1,2,3626.3,119,135,278,229,298.98,2,8
"1036",14,174,1,4,3626.3,119,135,278,229,635.06,3,7
"1037",14,174,1,3,3626.3,119,135,278,229,283.1,4,6
"1038",14,174,1,1,3626.3,119,135,278,229,215.9,5,5
"1039",14,174,1,2,3626.3,119,135,278,229,493.2,6,4
"1040",14,174,1,4,3626.3,119,135,278,229,368,7,3
"1041",14,174,1,3,3626.3,119,135,278,229,226.4,8,2
"1042",14,174,1,1,3626.3,119,135,278,229,215.7,9,1
"1069",14,180,1,1,1690.6,56,14,185,268,447.88,1,5
"1070",14,180,1,3,1690.6,56,14,185,268,284.01,2,4
"1071",14,180,1,4,1690.6,56,14,185,268,178,3,3
"1072",14,180,1,2,1690.6,56,14,185,268,268,4,2
"1073",14,180,1,1,1690.6,56,14,185,268,193.5,5,1
"1078",14,182,0,1,1680.3,50,82,295,226,435.94,1,4
"1079",14,182,0,2,1680.3,50,82,295,226,430.95,2,3
"1080",14,182,0,4,1680.3,50,82,295,226,256.2,3,2
"1081",14,182,0,2,1680.3,50,82,295,226,261.8,4,1
"1082",14,183,1,1,1554.3,177,140,204,280,360.9,1,4
"1083",14,183,1,3,1554.3,177,140,204,280,233.91,2,3
"1084",14,183,1,2,1554.3,177,140,204,280,262.2,3,2
"1085",14,183,1,1,1554.3,177,140,204,280,199.6,4,1
"1086",14,184,0,1,2749.8,69,106,300,159,138.98,1,6
"1087",14,184,0,2,2749.8,69,106,300,159,200.01,2,5
"1088",14,184,0,4,2749.8,69,106,300,159,199.22,3,4
"1089",14,184,0,2,2749.8,69,106,300,159,454.9,4,3
"1090",14,184,0,1,2749.8,69,106,300,159,250.1,5,2
"1091",14,184,0,2,2749.8,69,106,300,159,583.7,6,1
"1110",14,188,0,1,1665,45,60,244,134,181.99,1,4
"1111",14,188,0,2,1665,45,60,244,134,284.01,2,3
"1112",14,188,0,4,1665,45,60,244,134,354.07,3,2
"1113",14,188,0,2,1665,45,60,244,134,315.1,4,1
"1120",14,190,1,2,1999.7,210,162,212,299,176.3,1,5
"1121",14,190,1,3,1999.7,210,162,212,299,252,2,4
"1122",14,190,1,1,1999.7,210,162,212,299,291.9,3,3
"1123",14,190,1,4,1999.7,210,162,212,299,220.9,4,2
"1124",14,190,1,2,1999.7,210,162,212,299,164.4,5,1
"1125",14,191,0,2,2435.3,51,113,271,159,310.95,1,6
"1126",14,191,0,4,2435.3,51,113,271,159,335.04,2,5
"1127",14,191,0,3,2435.3,51,113,271,159,293,3,4
"1128",14,191,0,1,2435.3,51,113,271,159,325.9,4,3
"1129",14,191,0,2,2435.3,51,113,271,159,364.3,5,2
"1130",14,191,0,4,2435.3,51,113,271,159,346,6,1
"1131",14,192,0,1,3255.1,82,73,129,229,188.05,1,10
"1132",14,192,0,2,3255.1,82,73,129,229,282.98,2,9
"1133",14,192,0,1,3255.1,82,73,129,229,362.88,3,8
"1134",14,192,0,3,3255.1,82,73,129,229,278.9,4,7
"1135",14,192,0,4,3255.1,82,73,129,229,325,5,6
"1136",14,192,0,2,3255.1,82,73,129,229,318.1,6,5
"1137",14,192,0,1,3255.1,82,73,129,229,288.1,7,4
"1138",14,192,0,2,3255.1,82,73,129,229,116.1,8,3
"1139",14,192,0,4,3255.1,82,73,129,229,418.9,9,2
"1140",14,192,0,2,3255.1,82,73,129,229,232.4,10,1
"1172",14,198,1,1,5506.4,82,61,179,219,197.75,1,13
"1173",14,198,1,2,5506.4,82,61,179,219,176.2,2,12
"1174",14,198,1,3,5506.4,82,61,179,219,572.14,3,11
"1175",14,198,1,1,5506.4,82,61,179,219,144,4,10
"1176",14,198,1,2,5506.4,82,61,179,219,219.1,5,9
"1177",14,198,1,4,5506.4,82,61,179,219,448.2,6,8
"1178",14,198,1,1,5506.4,82,61,179,219,449.8,7,7
"1179",14,198,1,3,5506.4,82,61,179,219,551.1,8,6
"1180",14,198,1,4,5506.4,82,61,179,219,166,9,5
"1181",14,198,1,2,5506.4,82,61,179,219,1144.1,10,4
"1182",14,198,1,4,5506.4,82,61,179,219,303.3,11,3
"1183",14,198,1,1,5506.4,82,61,179,219,629.300000000001,12,2
"1184",14,198,1,3,5506.4,82,61,179,219,3.40000000000007,13,1
"1185",14,199,0,1,1796.5,54,85,186,126,231.79,1,5
"1186",14,199,0,2,1796.5,54,85,186,126,310.01,2,4
"1187",14,199,0,4,1796.5,54,85,186,126,527.05,3,3
"1188",14,199,0,2,1796.5,54,85,186,126,279.8,4,2
"1189",14,199,0,1,1796.5,54,85,186,126,138.3,5,1
"1190",14,200,1,1,2362.2,99,50,100,300,412.7,1,2
"1191",14,200,1,3,2362.2,99,50,100,300,1299.11,2,1
"130",15,1,0,2,3518,40,70,258,88,445.79,1,8
"213",15,1,0,3,3518,40,70,258,88,283,2,7
"322",15,1,0,2,3518,40,70,258,88,241.9,3,6
"4",15,1,0,4,3518,40,70,258,88,347.1,4,5
"5",15,1,0,1,3518,40,70,258,88,177,5,4
"6",15,1,0,2,3518,40,70,258,88,617.8,6,3
"78",15,1,0,1,3518,40,70,258,88,248,7,2
"811",15,1,0,2,3518,40,70,258,88,137.1,8,1
"912",15,2,1,2,1150.6,149,106,150,260,438.85,1,2
"1010",15,2,1,1,1150.6,149,106,150,260,320.85,2,1
"11100",15,3,0,2,3627.9,192,226,300,250,365.15,1,7
"1210",15,3,0,1,3627.9,192,226,300,250,167.16,2,6
"1339",15,3,0,4,3627.9,192,226,300,250,155,3,5
"146",15,3,0,2,3627.9,192,226,300,250,258.2,4,4
"159",15,3,0,4,3627.9,192,226,300,250,132.1,5,3
"16",15,3,0,1,3627.9,192,226,300,250,579,6,2
"17",15,3,0,2,3627.9,192,226,300,250,757.9,7,1
"18",15,4,1,2,4394.6,191,173,218,292,198.92,1,6
"19",15,4,1,1,4394.6,191,173,218,292,2606.13,2,5
"20",15,4,1,3,4394.6,191,173,218,292,72.0000000000001,3,4
"214",15,4,1,4,4394.6,191,173,218,292,451,4,3
"2210",15,4,1,2,4394.6,191,173,218,292,201.9,5,2
"234",15,4,1,1,4394.6,191,173,218,292,294,6,1
"2412",15,5,1,1,6151.3,69,52,176,282,167.78,1,11
"2510",15,5,1,2,6151.3,69,52,176,282,335.94,2,10
"2610",15,5,1,1,6151.3,69,52,176,282,269.15,3,9
"2710",15,5,1,2,6151.3,69,52,176,282,220.8,4,8
"28",15,5,1,1,6151.3,69,52,176,282,2219.7,5,7
"29",15,5,1,3,6151.3,69,52,176,282,194.100000000001,6,6
"3010",15,5,1,4,6151.3,69,52,176,282,375.1,7,5
"3110",15,5,1,3,6151.3,69,52,176,282,289.800000000001,8,4
"323",15,5,1,1,6151.3,69,52,176,282,230.099999999999,9,3
"33",15,5,1,2,6151.3,69,52,176,282,185.099999999999,10,2
"34",15,5,1,1,6151.3,69,52,176,282,177.8,11,1
"35",15,6,0,1,2116.8,124,158,280,230,220.01,1,6
"36",15,6,0,2,2116.8,124,158,280,230,538.1,2,5
"37",15,6,0,1,2116.8,124,158,280,230,233.09,3,4
"38",15,6,0,3,2116.8,124,158,280,230,175.1,4,3
"39",15,6,0,4,2116.8,124,158,280,230,481.1,5,2
"40",15,6,0,2,2116.8,124,158,280,230,171.8,6,1
"41",15,7,0,1,7379.4,155,178,285,223,151.45,1,13
"42",15,7,0,2,7379.4,155,178,285,223,305.04,2,12
"43",15,7,0,1,7379.4,155,178,285,223,401.02,3,11
"4410",15,7,0,2,7379.4,155,178,285,223,518,4,10
"4510",15,7,0,1,7379.4,155,178,285,223,823,5,9
"461",15,7,0,3,7379.4,155,178,285,223,149.7,6,8
"4710",15,7,0,4,7379.4,155,178,285,223,193,7,7
"4810",15,7,0,1,7379.4,155,178,285,223,198.1,8,6
"4910",15,7,0,2,7379.4,155,178,285,223,725.1,9,5
"5010",15,7,0,1,7379.4,155,178,285,223,488,10,4
"5110",15,7,0,2,7379.4,155,178,285,223,1018.1,11,3
"52",15,7,0,1,7379.4,155,178,285,223,339.2,12,2
"53",15,7,0,2,7379.4,155,178,285,223,620.7,13,1
"541",15,8,0,2,1787.8,51,113,271,159,302.55,1,6
"556",15,8,0,1,1787.8,51,113,271,159,133.96,2,5
"5610",15,8,0,2,1787.8,51,113,271,159,158.99,3,4
"5710",15,8,0,4,1787.8,51,113,271,159,173,4,3
"588",15,8,0,3,1787.8,51,113,271,159,140,5,2
"591",15,8,0,2,1787.8,51,113,271,159,500.1,6,1
"83",15,11,1,1,3400.3,100,50,146,300,310.04,1,9
"84",15,11,1,2,3400.3,100,50,146,300,266.99,2,8
"85",15,11,1,4,3400.3,100,50,146,300,106.9,3,7
"86",15,11,1,3,3400.3,100,50,146,300,364,4,6
"87",15,11,1,1,3400.3,100,50,146,300,441.2,5,5
"8810",15,11,1,2,3400.3,100,50,146,300,262.9,6,4
"895",15,11,1,4,3400.3,100,50,146,300,246.1,7,3
"909",15,11,1,2,3400.3,100,50,146,300,453.6,8,2
"913",15,11,1,1,3400.3,100,50,146,300,357.5,9,1
"11710",15,13,1,1,3357.8,242,230,250,290,212.03,1,8
"11811",15,13,1,2,3357.8,242,230,250,290,376.11,2,7
"11910",15,13,1,1,3357.8,242,230,250,290,418.19,3,6
"1206",15,13,1,2,3357.8,242,230,250,290,453.2,4,5
"1212",15,13,1,3,3357.8,242,230,250,290,3.89999999999979,5,4
"1222",15,13,1,4,3357.8,242,230,250,290,12.9999999999999,6,3
"1232",15,13,1,2,3357.8,242,230,250,290,240,7,2
"1242",15,13,1,1,3357.8,242,230,250,290,557.5,8,1
"1651",15,20,0,1,1441.2,46,92,295,191,147.09,1,4
"1665",15,20,0,2,1441.2,46,92,295,191,350.11,2,3
"167",15,20,0,4,1441.2,46,92,295,191,240.99,3,2
"168",15,20,0,2,1441.2,46,92,295,191,257.7,4,1
"1751",15,22,0,1,6453,143,163,285,210,11.84,1,14
"1763",15,22,0,2,6453,143,163,285,210,222.83,2,13
"1771",15,22,0,1,6453,143,163,285,210,353,3,12
"1786",15,22,0,2,6453,143,163,285,210,328.1,4,11
"1791",15,22,0,3,6453,143,163,285,210,2.09999999999999,5,10
"1801",15,22,0,4,6453,143,163,285,210,274,6,9
"181",15,22,0,2,6453,143,163,285,210,1326.4,7,8
"182",15,22,0,1,6453,143,163,285,210,430,8,7
"183",15,22,0,2,6453,143,163,285,210,424,9,6
"184",15,22,0,1,6453,143,163,285,210,285.9,10,5
"1852",15,22,0,2,6453,143,163,285,210,358,11,4
"1862",15,22,0,4,6453,143,163,285,210,235.1,12,3
"1872",15,22,0,3,6453,143,163,285,210,0.899999999999679,13,2
"1882",15,22,0,4,6453,143,163,285,210,261.500000000001,14,1
"1892",15,23,0,1,4465.6,125,156,283,226,161.03,1,11
"1902",15,23,0,2,4465.6,125,156,283,226,406.13,2,10
"1912",15,23,0,1,4465.6,125,156,283,226,375.88,3,9
"1922",15,23,0,2,4465.6,125,156,283,226,368.9,4,8
"1932",15,23,0,3,4465.6,125,156,283,226,175.2,5,7
"1941",15,23,0,4,4465.6,125,156,283,226,510.9,6,6
"1951",15,23,0,2,4465.6,125,156,283,226,286.1,7,5
"1961",15,23,0,1,4465.6,125,156,283,226,426.1,8,4
"1971",15,23,0,2,4465.6,125,156,283,226,325.1,9,3
"198",15,23,0,3,4465.6,125,156,283,226,163.9,10,2
"199",15,23,0,2,4465.6,125,156,283,226,276.2,11,1
"2181",15,25,0,1,2267.4,70,100,245,150,176.9,1,4
"2192",15,25,0,2,2267.4,70,100,245,150,1263.97,2,3
"2202",15,25,0,4,2267.4,70,100,245,150,8.00000000000001,3,2
"2212",15,25,0,2,2267.4,70,100,245,150,33.1999999999999,4,1
"2281",15,27,1,2,2625.4,53,37,217,258,13.02,1,6
"2291",15,27,1,1,2625.4,53,37,217,258,210.23,2,5
"230",15,27,1,2,2625.4,53,37,217,258,6.00000000000001,3,4
"2311",15,27,1,3,2625.4,53,37,217,258,20.1,4,3
"232",15,27,1,4,2625.4,53,37,217,258,113.1,5,2
"233",15,27,1,1,2625.4,53,37,217,258,981.3,6,1
"2402",15,29,0,1,2673.6,81,100,290,105,159.78,1,7
"2413",15,29,0,2,2673.6,81,100,290,105,311.97,2,6
"2421",15,29,0,3,2673.6,81,100,290,105,241.97,3,5
"2432",15,29,0,4,2673.6,81,100,290,105,209.9,4,4
"2442",15,29,0,2,2673.6,81,100,290,105,576.1,5,3
"2452",15,29,0,1,2673.6,81,100,290,105,362,6,2
"2461",15,29,0,2,2673.6,81,100,290,105,455.5,7,1
"2532",15,31,1,1,1892.2,100,75,108,241,33.7,1,6
"2542",15,31,1,2,1892.2,100,75,108,241,316.86,2,5
"2552",15,31,1,1,1892.2,100,75,108,241,245.05,3,4
"2562",15,31,1,3,1892.2,100,75,108,241,179,4,3
"2572",15,31,1,4,1892.2,100,75,108,241,414.2,5,2
"2581",15,31,1,1,1892.2,100,75,108,241,110.3,6,1
"2591",15,32,0,1,3325.8,51,96,240,100,188.79,1,7
"260",15,32,0,2,3325.8,51,96,240,100,305.86,2,6
"2611",15,32,0,3,3325.8,51,96,240,100,4.14000000000003,3,5
"262",15,32,0,4,3325.8,51,96,240,100,210,4,4
"2631",15,32,0,2,3325.8,51,96,240,100,618.1,5,3
"264",15,32,0,1,3325.8,51,96,240,100,271.1,6,2
"265",15,32,0,2,3325.8,51,96,240,100,976.4,7,1
"266",15,33,1,1,1633,60,29,195,270,406.13,1,5
"2671",15,33,1,2,1633,60,29,195,270,189.93,2,4
"2681",15,33,1,1,1633,60,29,195,270,117.98,3,3
"2691",15,33,1,3,1633,60,29,195,270,183.1,4,2
"2701",15,33,1,4,1633,60,29,195,270,178.9,5,1
"2711",15,34,1,1,1777.9,100,63,124,287,371.07,1,5
"2721",15,34,1,2,1777.9,100,63,124,287,362.04,2,4
"2731",15,34,1,3,1777.9,100,63,124,287,145.9,3,3
"2741",15,34,1,4,1777.9,100,63,124,287,276.1,4,2
"2751",15,34,1,1,1777.9,100,63,124,287,208,5,1
"276",15,35,0,2,2719.9,93,141,296,187,231.6,1,5
"277",15,35,0,4,2719.9,93,141,296,187,185.06,2,4
"278",15,35,0,2,2719.9,93,141,296,187,390.25,3,3
"279",15,35,0,1,2719.9,93,141,296,187,245,4,2
"2801",15,35,0,2,2719.9,93,141,296,187,920.3,5,1
"287",15,37,1,1,1670.5,90,52,94,274,170.84,1,6
"288",15,37,1,2,1670.5,90,52,94,274,231,2,5
"2891",15,37,1,1,1670.5,90,52,94,274,174.93,3,4
"2901",15,37,1,3,1670.5,90,52,94,274,168.16,4,3
"2911",15,37,1,4,1670.5,90,52,94,274,202,5,2
"2922",15,37,1,1,1670.5,90,52,94,274,176.1,6,1
"2932",15,38,1,1,2043.3,85,54,126,186,189.91,1,5
"2942",15,38,1,2,2043.3,85,54,126,186,176.17,2,4
"2952",15,38,1,4,2043.3,85,54,126,186,214.9,3,3
"2961",15,38,1,3,2043.3,85,54,126,186,323.1,4,2
"2971",15,38,1,1,2043.3,85,54,126,186,410.2,5,1
"2981",15,39,1,1,1958.5,70,45,99,276,154.84,1,7
"2991",15,39,1,2,1958.5,70,45,99,276,307.87,2,6
"3001",15,39,1,1,1958.5,70,45,99,276,20.1,3,5
"3011",15,39,1,3,1958.5,70,45,99,276,173,4,4
"3021",15,39,1,4,1958.5,70,45,99,276,206.9,5,3
"3031",15,39,1,2,1958.5,70,45,99,276,195,6,2
"3041",15,39,1,1,1958.5,70,45,99,276,70.9,7,1
"3151",15,41,0,1,3239.2,44,75,291,80,169.85,1,7
"3161",15,41,0,2,3239.2,44,75,291,80,347.93,2,6
"3171",15,41,0,3,3239.2,44,75,291,80,242.05,3,5
"3181",15,41,0,4,3239.2,44,75,291,80,459.1,4,4
"319",15,41,0,2,3239.2,44,75,291,80,366,5,3
"320",15,41,0,1,3239.2,44,75,291,80,219.2,6,2
"321",15,41,0,2,3239.2,44,75,291,80,1106.7,7,1
"3581",15,45,1,1,9401.7,71,82,288,119,175.01,1,16
"3591",15,45,1,2,9401.7,71,82,288,119,190.06,2,15
"3601",15,45,1,1,9401.7,71,82,288,119,219.89,3,14
"3611",15,45,1,2,9401.7,71,82,288,119,420.78,4,13
"3621",15,45,1,1,9401.7,71,82,288,119,491,5,12
"3631",15,45,1,2,9401.7,71,82,288,119,723,6,11
"3642",15,45,1,4,9401.7,71,82,288,119,407.1,7,10
"3652",15,45,1,3,9401.7,71,82,288,119,205.1,8,9
"3661",15,45,1,1,9401.7,71,82,288,119,234.2,9,8
"3671",15,45,1,2,9401.7,71,82,288,119,456.1,10,7
"3681",15,45,1,1,9401.7,71,82,288,119,396.3,11,6
"3691",15,45,1,2,9401.7,71,82,288,119,1019,12,5
"370",15,45,1,3,9401.7,71,82,288,119,218.999999999999,13,4
"3711",15,45,1,4,9401.7,71,82,288,119,208.9,14,3
"3721",15,45,1,2,9401.7,71,82,288,119,333.9,15,2
"3731",15,45,1,1,9401.7,71,82,288,119,32.8999999999997,16,1
"3811",15,47,1,1,1475.7,73,40,162,283,162.88,1,7
"3822",15,47,1,2,1475.7,73,40,162,283,161.02,2,6
"3832",15,47,1,1,1475.7,73,40,162,283,145.05,3,5
"3841",15,47,1,2,1475.7,73,40,162,283,196.23,4,4
"3851",15,47,1,1,1475.7,73,40,162,283,112.1,5,3
"3861",15,47,1,3,1475.7,73,40,162,283,189.1,6,2
"387",15,47,1,4,1475.7,73,40,162,283,71.9000000000001,7,1
"414",15,52,0,1,2699.9,67,94,219,95,155.89,1,8
"415",15,52,0,2,2699.9,67,94,219,95,212.83,2,7
"416",15,52,0,1,2699.9,67,94,219,95,176.16,3,6
"417",15,52,0,3,2699.9,67,94,219,95,222.04,4,5
"418",15,52,0,4,2699.9,67,94,219,95,354.2,5,4
"419",15,52,0,2,2699.9,67,94,219,95,338,6,3
"4202",15,52,0,1,2699.9,67,94,219,95,379.1,7,2
"4212",15,52,0,2,2699.9,67,94,219,95,221.7,8,1
"4222",15,53,1,1,2532,76,60,90,160,183.91,1,8
"4231",15,53,1,2,2532,76,60,90,160,35.05,2,7
"4241",15,53,1,1,2532,76,60,90,160,18.77,3,6
"4251",15,53,1,3,2532,76,60,90,160,231.01,4,5
"4261",15,53,1,4,2532,76,60,90,160,735.6,5,4
"427",15,53,1,3,2532,76,60,90,160,217.9,6,3
"428",15,53,1,1,2532,76,60,90,160,41.9,7,2
"4291",15,53,1,2,2532,76,60,90,160,164.8,8,1
"4301",15,54,0,1,3206.1,57,69,300,235,159.98,1,6
"4311",15,54,0,2,3206.1,57,69,300,235,840.91,2,5
"4321",15,54,0,4,3206.1,57,69,300,235,318.1,3,4
"4331",15,54,0,2,3206.1,57,69,300,235,892,4,3
"434",15,54,0,1,3206.1,57,69,300,235,151.8,5,2
"435",15,54,0,2,3206.1,57,69,300,235,316.8,6,1
"4361",15,55,0,1,1324.1,33,66,209,80,173.93,1,2
"4371",15,55,0,2,1324.1,33,66,209,80,954.65,2,1
"4461",15,57,1,1,2196.3,210,162,212,299,258.89,1,6
"447",15,57,1,2,2196.3,210,162,212,299,433.12,2,5
"448",15,57,1,1,2196.3,210,162,212,299,370.82,3,4
"449",15,57,1,4,2196.3,210,162,212,299,274,4,3
"4501",15,57,1,3,2196.3,210,162,212,299,212.1,5,2
"4511",15,57,1,1,2196.3,210,162,212,299,66.1999999999998,6,1
"452",15,58,0,1,3315.8,54,50,160,275,222.68,1,6
"453",15,58,0,2,3315.8,54,50,160,275,1183.88,2,5
"454",15,58,0,4,3315.8,54,50,160,275,173.1,3,4
"455",15,58,0,3,3315.8,54,50,160,275,280.7,4,3
"456",15,58,0,2,3315.8,54,50,160,275,320,5,2
"4571",15,58,0,4,3315.8,54,50,160,275,246.9,6,1
"463",15,60,1,1,1689.9,117,85,125,278,325.97,1,4
"464",15,60,1,2,1689.9,117,85,125,278,443.15,2,3
"4651",15,60,1,4,1689.9,117,85,125,278,195,3,2
"4661",15,60,1,1,1689.9,117,85,125,278,215.8,4,1
"4782",15,62,1,1,3355.1,74,84,272,226,124.29,1,10
"4792",15,62,1,2,3355.1,74,84,272,226,280.92,2,9
"4802",15,62,1,1,3355.1,74,84,272,226,31.9900000000001,3,8
"4812",15,62,1,2,3355.1,74,84,272,226,161.1,4,7
"4822",15,62,1,4,3355.1,74,84,272,226,210,5,6
"4831",15,62,1,3,3355.1,74,84,272,226,215.2,6,5
"4841",15,62,1,1,3355.1,74,84,272,226,328.9,7,4
"4851",15,62,1,2,3355.1,74,84,272,226,381.4,8,3
"4862",15,62,1,1,3355.1,74,84,272,226,361.2,9,2
"4872",15,62,1,3,3355.1,74,84,272,226,268.6,10,1
"501",15,65,0,1,2708.8,46,91,284,186,173.84,1,8
"502",15,65,0,2,2708.8,46,91,284,186,363.91,2,7
"503",15,65,0,3,2708.8,46,91,284,186,13.12,3,6
"504",15,65,0,4,2708.8,46,91,284,186,266.9,4,5
"505",15,65,0,2,2708.8,46,91,284,186,424,5,4
"5061",15,65,0,4,2708.8,46,91,284,186,366.3,6,3
"5071",15,65,0,3,2708.8,46,91,284,186,172,7,2
"5081",15,65,0,2,2708.8,46,91,284,186,371.7,8,1
"5091",15,66,0,2,1086.7,170,200,291,215,174.85,1,4
"5101",15,66,0,1,1086.7,170,200,291,215,190.12,2,3
"5111",15,66,0,4,1086.7,170,200,291,215,146.83,3,2
"512",15,66,0,2,1086.7,170,200,291,215,135.5,4,1
"513",15,67,1,1,6537.9,81,71,221,286,193.81,1,13
"514",15,67,1,2,6537.9,81,71,221,286,242.09,2,12
"515",15,67,1,1,6537.9,81,71,221,286,279.18,3,11
"516",15,67,1,2,6537.9,81,71,221,286,544.93,4,10
"517",15,67,1,1,6537.9,81,71,221,286,937,5,9
"518",15,67,1,4,6537.9,81,71,221,286,251.7,6,8
"519",15,67,1,2,6537.9,81,71,221,286,8.10000000000022,7,7
"520",15,67,1,1,6537.9,81,71,221,286,334,8,6
"521",15,67,1,4,6537.9,81,71,221,286,218,9,5
"522",15,67,1,3,6537.9,81,71,221,286,277.900000000001,10,4
"523",15,67,1,1,6537.9,81,71,221,286,7.89999999999935,11,3
"524",15,67,1,2,6537.9,81,71,221,286,216.900000000001,12,2
"525",15,67,1,1,6537.9,81,71,221,286,97.3999999999995,13,1
"526",15,68,1,1,3068.1,215,200,236,286,171.86,1,9
"527",15,68,1,2,3068.1,215,200,236,286,229.09,2,8
"528",15,68,1,1,3068.1,215,200,236,286,204.04,3,7
"529",15,68,1,2,3068.1,215,200,236,286,355,4,6
"5301",15,68,1,1,3068.1,215,200,236,286,476.1,5,5
"5311",15,68,1,3,3068.1,215,200,236,286,184.9,6,4
"5321",15,68,1,4,3068.1,215,200,236,286,367.2,7,3
"5331",15,68,1,2,3068.1,215,200,236,286,229,8,2
"534",15,68,1,1,3068.1,215,200,236,286,303.9,9,1
"543",15,70,0,1,2605,87,104,280,140,167.93,1,7
"544",15,70,0,2,2605,87,104,280,140,376.07,2,6
"545",15,70,0,1,2605,87,104,280,140,280.98,3,5
"5461",15,70,0,2,2605,87,104,280,140,463.2,4,4
"5471",15,70,0,3,2605,87,104,280,140,243.3,5,3
"5481",15,70,0,4,2605,87,104,280,140,258.8,6,2
"5491",15,70,0,2,2605,87,104,280,140,450.5,7,1
"5501",15,71,0,2,1978.3,55,78,290,90,165.42,1,6
"5511",15,71,0,1,1978.3,55,78,290,90,116.86,2,5
"5521",15,71,0,3,1978.3,55,78,290,90,157.03,3,4
"5531",15,71,0,4,1978.3,55,78,290,90,209,4,3
"5541",15,71,0,2,1978.3,55,78,290,90,230,5,2
"555",15,71,0,4,1978.3,55,78,290,90,169.3,6,1
"561",15,73,1,2,4820.9,154,91,170,287,156.94,1,15
"562",15,73,1,1,4820.9,154,91,170,287,204.94,2,14
"563",15,73,1,3,4820.9,154,91,170,287,184.93,3,13
"564",15,73,1,4,4820.9,154,91,170,287,301.06,4,12
"565",15,73,1,1,4820.9,154,91,170,287,359.9,5,11
"566",15,73,1,2,4820.9,154,91,170,287,226.9,6,10
"567",15,73,1,1,4820.9,154,91,170,287,203.2,7,9
"568",15,73,1,3,4820.9,154,91,170,287,284.1,8,8
"569",15,73,1,4,4820.9,154,91,170,287,224,9,7
"570",15,73,1,3,4820.9,154,91,170,287,202.3,10,6
"571",15,73,1,1,4820.9,154,91,170,287,497.7,11,5
"572",15,73,1,3,4820.9,154,91,170,287,202.8,12,4
"573",15,73,1,4,4820.9,154,91,170,287,263.9,13,3
"574",15,73,1,2,4820.9,154,91,170,287,329,14,2
"575",15,73,1,1,4820.9,154,91,170,287,87.2000000000002,15,1
"576",15,74,0,1,5014.9,132,164,297,203,347.07,1,12
"577",15,74,0,2,5014.9,132,164,297,203,180.98,2,11
"578",15,74,0,4,5014.9,132,164,297,203,212.96,3,10
"579",15,74,0,3,5014.9,132,164,297,203,174,4,9
"580",15,74,0,1,5014.9,132,164,297,203,537.8,5,8
"581",15,74,0,2,5014.9,132,164,297,203,515,6,7
"582",15,74,0,4,5014.9,132,164,297,203,494,7,6
"583",15,74,0,2,5014.9,132,164,297,203,478,8,5
"584",15,74,0,1,5014.9,132,164,297,203,312,9,4
"585",15,74,0,2,5014.9,132,164,297,203,527.8,10,3
"586",15,74,0,1,5014.9,132,164,297,203,229.8,11,2
"587",15,74,0,2,5014.9,132,164,297,203,72.1999999999996,12,1
"6021",15,77,1,1,2243.9,177,140,204,280,243.93,1,7
"6031",15,77,1,2,2243.9,177,140,204,280,284.93,2,6
"6041",15,77,1,1,2243.9,177,140,204,280,214.97,3,5
"6051",15,77,1,3,2243.9,177,140,204,280,385.1,4,4
"6061",15,77,1,4,2243.9,177,140,204,280,413.1,5,3
"6071",15,77,1,2,2243.9,177,140,204,280,297.1,6,2
"6081",15,77,1,1,2243.9,177,140,204,280,66.3999999999998,7,1
"609",15,78,0,1,1743.9,55,75,269,97,168.1,1,6
"610",15,78,0,2,1743.9,55,75,269,97,369.99,2,5
"611",15,78,0,1,1743.9,55,75,269,97,196.01,3,4
"612",15,78,0,3,1743.9,55,75,269,97,155.84,4,3
"613",15,78,0,4,1743.9,55,75,269,97,233.7,5,2
"614",15,78,0,2,1743.9,55,75,269,97,338.2,6,1
"6151",15,79,0,1,2255.3,113,100,141,300,141.06,1,7
"6161",15,79,0,2,2255.3,113,100,141,300,387.21,2,6
"6171",15,79,0,4,2255.3,113,100,141,300,169.12,3,5
"6181",15,79,0,3,2255.3,113,100,141,300,262.1,4,4
"6191",15,79,0,1,2255.3,113,100,141,300,195,5,3
"620",15,79,0,2,2255.3,113,100,141,300,452,6,2
"621",15,79,0,4,2255.3,113,100,141,300,116.2,7,1
"6391",15,81,0,1,4315.5,50,70,297,100,150.93,1,7
"6401",15,81,0,2,4315.5,50,70,297,100,345.96,2,6
"6411",15,81,0,4,4315.5,50,70,297,100,211.1,3,5
"6421",15,81,0,2,4315.5,50,70,297,100,1794.2,4,4
"6431",15,81,0,4,4315.5,50,70,297,100,445.1,5,3
"6441",15,81,0,2,4315.5,50,70,297,100,42.1,6,2
"6451",15,81,0,1,4315.5,50,70,297,100,208,7,1
"6461",15,82,0,1,3046.2,82,73,129,229,155.66,1,9
"6471",15,82,0,2,3046.2,82,73,129,229,858.89,2,8
"6481",15,82,0,1,3046.2,82,73,129,229,81.6999999999999,3,7
"6491",15,82,0,3,3046.2,82,73,129,229,168.9,4,6
"6501",15,82,0,4,3046.2,82,73,129,229,230.9,5,5
"6511",15,82,0,2,3046.2,82,73,129,229,363.9,6,4
"6521",15,82,0,1,3046.2,82,73,129,229,162,7,3
"6531",15,82,0,4,3046.2,82,73,129,229,337.9,8,2
"6541",15,82,0,3,3046.2,82,73,129,229,9.09999999999966,9,1
"6551",15,83,0,1,2715.3,88,101,287,202,191.94,1,5
"6561",15,83,0,2,2715.3,88,101,287,202,88.8099999999999,2,4
"6571",15,83,0,4,2715.3,88,101,287,202,554.1,3,3
"6581",15,83,0,2,2715.3,88,101,287,202,486.1,4,2
"6591",15,83,0,4,2715.3,88,101,287,202,287.1,5,1
"6601",15,84,0,1,2594.4,95,110,221,150,209.92,1,8
"6611",15,84,0,2,2594.4,95,110,221,150,328.16,2,7
"6621",15,84,0,4,2594.4,95,110,221,150,206.16,3,6
"6631",15,84,0,3,2594.4,95,110,221,150,352,4,5
"6641",15,84,0,1,2594.4,95,110,221,150,5.1000000000001,5,4
"6651",15,84,0,2,2594.4,95,110,221,150,400.4,6,3
"6661",15,84,0,1,2594.4,95,110,221,150,304.9,7,2
"6671",15,84,0,2,2594.4,95,110,221,150,235.3,8,1
"7421",15,91,0,1,1993.5,31,68,291,112,50.79,1,7
"7431",15,91,0,2,1993.5,31,68,291,112,230.12,2,6
"7441",15,91,0,3,1993.5,31,68,291,112,229.85,3,5
"7451",15,91,0,4,1993.5,31,68,291,112,398.17,4,4
"7461",15,91,0,2,1993.5,31,68,291,112,19.9,5,3
"7471",15,91,0,1,1993.5,31,68,291,112,0.899999999999901,6,2
"7481",15,91,0,2,1993.5,31,68,291,112,105.9,7,1
"7491",15,92,0,1,2891.7,65,88,224,100,192.81,1,9
"7501",15,92,0,2,2891.7,65,88,224,100,304.25,2,8
"7511",15,92,0,3,2891.7,65,88,224,100,200.95,3,7
"7521",15,92,0,4,2891.7,65,88,224,100,403.88,4,6
"7531",15,92,0,2,2891.7,65,88,224,100,463,5,5
"7541",15,92,0,1,2891.7,65,88,224,100,164.8,6,4
"7551",15,92,0,2,2891.7,65,88,224,100,190.1,7,3
"7561",15,92,0,4,2891.7,65,88,224,100,264.1,8,2
"7571",15,92,0,3,2891.7,65,88,224,100,134.1,9,1
"767",15,94,1,1,2210.4,60,30,64,226,187.95,1,6
"7681",15,94,1,2,2210.4,60,30,64,226,246.06,2,5
"7691",15,94,1,1,2210.4,60,30,64,226,359.28,3,4
"7701",15,94,1,2,2210.4,60,30,64,226,2.80000000000014,4,3
"7711",15,94,1,3,2210.4,60,30,64,226,250,5,2
"7721",15,94,1,4,2210.4,60,30,64,226,90.9999999999997,6,1
"7731",15,95,1,1,2145,106,69,159,300,247.87,1,7
"7741",15,95,1,2,2145,106,69,159,300,236.15,2,6
"7751",15,95,1,4,2145,106,69,159,300,209.19,3,5
"7761",15,95,1,3,2145,106,69,159,300,428,4,4
"7771",15,95,1,1,2145,106,69,159,300,236,5,3
"778",15,95,1,2,2145,106,69,159,300,305.1,6,2
"779",15,95,1,4,2145,106,69,159,300,137.9,7,1
"780",15,96,0,1,3633.1,27,77,296,159,131.98,1,10
"781",15,96,0,2,3633.1,27,77,296,159,186.03,2,9
"782",15,96,0,4,3633.1,27,77,296,159,219.1,3,8
"7831",15,96,0,3,3633.1,27,77,296,159,496.9,4,7
"7841",15,96,0,1,3633.1,27,77,296,159,326,5,6
"7851",15,96,0,3,3633.1,27,77,296,159,270,6,5
"7861",15,96,0,2,3633.1,27,77,296,159,492.2,7,4
"7871",15,96,0,1,3633.1,27,77,296,159,32.9999999999999,8,3
"7881",15,96,0,2,3633.1,27,77,296,159,367,9,2
"789",15,96,0,4,3633.1,27,77,296,159,219.9,10,1
"790",15,97,1,1,2309.8,151,162,286,242,162.98,1,9
"791",15,97,1,2,2309.8,151,162,286,242,323.81,2,8
"792",15,97,1,1,2309.8,151,162,286,242,207.93,3,7
"793",15,97,1,2,2309.8,151,162,286,242,98.02,4,6
"7941",15,97,1,4,2309.8,151,162,286,242,173,5,5
"7951",15,97,1,3,2309.8,151,162,286,242,8.00000000000001,6,4
"7961",15,97,1,1,2309.8,151,162,286,242,202.1,7,3
"7971",15,97,1,2,2309.8,151,162,286,242,348.6,8,2
"7981",15,97,1,4,2309.8,151,162,286,242,202.8,9,1
"799",15,98,0,1,4498,60,45,134,244,161.84,1,12
"800",15,98,0,2,4498,60,45,134,244,192.21,2,11
"801",15,98,0,3,4498,60,45,134,244,121.98,3,10
"802",15,98,0,4,4498,60,45,134,244,623.13,4,9
"803",15,98,0,1,4498,60,45,134,244,9.10000000000011,5,8
"804",15,98,0,2,4498,60,45,134,244,273.4,6,7
"805",15,98,0,1,4498,60,45,134,244,185.9,7,6
"806",15,98,0,4,4498,60,45,134,244,267.7,8,5
"807",15,98,0,2,4498,60,45,134,244,44,9,4
"808",15,98,0,1,4498,60,45,134,244,526.9,10,3
"809",15,98,0,2,4498,60,45,134,244,295.1,11,2
"810",15,98,0,4,4498,60,45,134,244,216.9,12,1
"819",15,100,0,1,2317.4,50,99,300,100,163.03,1,9
"820",15,100,0,2,2317.4,50,99,300,100,201.05,2,8
"821",15,100,0,4,2317.4,50,99,300,100,290.96,3,7
"822",15,100,0,2,2317.4,50,99,300,100,251.1,4,6
"823",15,100,0,1,2317.4,50,99,300,100,151,5,5
"824",15,100,0,3,2317.4,50,99,300,100,227.1,6,4
"825",15,100,0,1,2317.4,50,99,300,100,17.9,7,3
"826",15,100,0,2,2317.4,50,99,300,100,200.1,8,2
"827",15,100,0,4,2317.4,50,99,300,100,39.8000000000001,9,1
"8461",15,103,1,1,2732.9,146,95,158,284,162.25,1,10
"8471",15,103,1,2,2732.9,146,95,158,284,178,2,9
"8481",15,103,1,1,2732.9,146,95,158,284,24.91,3,8
"8491",15,103,1,3,2732.9,146,95,158,284,191.94,4,7
"8501",15,103,1,4,2732.9,146,95,158,284,292.06,5,6
"8511",15,103,1,1,2732.9,146,95,158,284,218,6,5
"8521",15,103,1,3,2732.9,146,95,158,284,249.9,7,4
"8531",15,103,1,4,2732.9,146,95,158,284,289,8,3
"8541",15,103,1,2,2732.9,146,95,158,284,353,9,2
"8551",15,103,1,1,2732.9,146,95,158,284,65.7999999999999,10,1
"8751",15,105,0,1,8055.7,105,130,253,208,216.06,1,20
"8761",15,105,0,2,8055.7,105,130,253,208,206.05,2,19
"8771",15,105,0,4,8055.7,105,130,253,208,202.95,3,18
"8781",15,105,0,3,8055.7,105,130,253,208,207.1,4,17
"8791",15,105,0,2,8055.7,105,130,253,208,520,5,16
"880",15,105,0,4,8055.7,105,130,253,208,224.9,6,15
"8811",15,105,0,2,8055.7,105,130,253,208,421.9,7,14
"882",15,105,0,1,8055.7,105,130,253,208,285.2,8,13
"883",15,105,0,2,8055.7,105,130,253,208,266.8,9,12
"884",15,105,0,1,8055.7,105,130,253,208,168.4,10,11
"885",15,105,0,2,8055.7,105,130,253,208,268.899999999999,11,10
"886",15,105,0,4,8055.7,105,130,253,208,342.8,12,9
"887",15,105,0,3,8055.7,105,130,253,208,311.1,13,8
"888",15,105,0,4,8055.7,105,130,253,208,648,14,7
"889",15,105,0,2,8055.7,105,130,253,208,340,15,6
"890",15,105,0,1,8055.7,105,130,253,208,267.2,16,5
"8911",15,105,0,4,8055.7,105,130,253,208,252.1,17,4
"892",15,105,0,3,8055.7,105,130,253,208,253.1,18,3
"893",15,105,0,1,8055.7,105,130,253,208,174.9,19,2
"894",15,105,0,2,8055.7,105,130,253,208,689.7,20,1
"9011",15,107,1,1,2486.4,95,71,161,292,2.72,1,8
"9021",15,107,1,2,2486.4,95,71,161,292,181.42,2,7
"903",15,107,1,4,2486.4,95,71,161,292,172.97,3,6
"904",15,107,1,1,2486.4,95,71,161,292,242,4,5
"905",15,107,1,3,2486.4,95,71,161,292,305.2,5,4
"906",15,107,1,2,2486.4,95,71,161,292,366,6,3
"907",15,107,1,4,2486.4,95,71,161,292,218.3,7,2
"908",15,107,1,3,2486.4,95,71,161,292,170.6,8,1
"916",15,109,0,1,4649.6,106,139,277,150,219.93,1,15
"917",15,109,0,2,4649.6,106,139,277,150,255.05,2,14
"918",15,109,0,3,4649.6,106,139,277,150,310.97,3,13
"919",15,109,0,4,4649.6,106,139,277,150,0.799999999999912,4,12
"920",15,109,0,2,4649.6,106,139,277,150,303.1,5,11
"9211",15,109,0,1,4649.6,106,139,277,150,191.2,6,10
"922",15,109,0,2,4649.6,106,139,277,150,278.2,7,9
"9231",15,109,0,4,4649.6,106,139,277,150,188.2,8,8
"9241",15,109,0,3,4649.6,106,139,277,150,395.1,9,7
"9251",15,109,0,4,4649.6,106,139,277,150,339.7,10,6
"9261",15,109,0,2,4649.6,106,139,277,150,354.2,11,5
"927",15,109,0,1,4649.6,106,139,277,150,230,12,4
"928",15,109,0,2,4649.6,106,139,277,150,147.1,13,3
"929",15,109,0,4,4649.6,106,139,277,150,443.000000000001,14,2
"930",15,109,0,2,4649.6,106,139,277,150,53.4000000000008,15,1
"9401",15,111,1,1,3795.7,56,14,185,268,158.1,1,11
"9411",15,111,1,2,3795.7,56,14,185,268,431.9,2,10
"9421",15,111,1,4,3795.7,56,14,185,268,224.07,3,9
"9431",15,111,1,3,3795.7,56,14,185,268,231.2,4,8
"9441",15,111,1,1,3795.7,56,14,185,268,18.1,5,7
"9451",15,111,1,2,3795.7,56,14,185,268,332,6,6
"9461",15,111,1,4,3795.7,56,14,185,268,365.1,7,5
"9471",15,111,1,3,3795.7,56,14,185,268,227.2,8,4
"9481",15,111,1,1,3795.7,56,14,185,268,209.2,9,3
"9491",15,111,1,2,3795.7,56,14,185,268,205.1,10,2
"950",15,111,1,3,3795.7,56,14,185,268,12.8000000000004,11,1
"985",15,115,1,1,1567.6,112,58,129,216,155.93,1,4
"986",15,115,1,2,1567.6,112,58,129,216,220.96,2,3
"987",15,115,1,4,1567.6,112,58,129,216,201.04,3,2
"988",15,115,1,2,1567.6,112,58,129,216,179,4,1
"9891",15,116,0,1,2031.4,24,51,221,97,89.08,1,7
"9901",15,116,0,2,2031.4,24,51,221,97,326.23,2,6
"9911",15,116,0,4,2031.4,24,51,221,97,610.07,3,5
"9921",15,116,0,2,2031.4,24,51,221,97,231,4,4
"9931",15,116,0,1,2031.4,24,51,221,97,149,5,3
"9941",15,116,0,3,2031.4,24,51,221,97,159,6,2
"9951",15,116,0,4,2031.4,24,51,221,97,56.2,7,1
"1033",15,120,1,1,3157.9,70,42,123,179,253.91,1,7
"10341",15,120,1,3,3157.9,70,42,123,179,216.01,2,6
"10351",15,120,1,4,3157.9,70,42,123,179,468.13,3,5
"10361",15,120,1,2,3157.9,70,42,123,179,269,4,4
"10371",15,120,1,1,3157.9,70,42,123,179,322.2,5,3
"10381",15,120,1,2,3157.9,70,42,123,179,271.2,6,2
"10391",15,120,1,3,3157.9,70,42,123,179,345.2,7,1
"10401",15,121,1,4,5737.3,82,50,226,295,20.19,1,14
"10411",15,121,1,2,5737.3,82,50,226,295,334.4,2,13
"10421",15,121,1,1,5737.3,82,50,226,295,194.91,3,12
"1043",15,121,1,3,5737.3,82,50,226,295,353.9,4,11
"1044",15,121,1,4,5737.3,82,50,226,295,356.1,5,10
"1045",15,121,1,2,5737.3,82,50,226,295,305.1,6,9
"1046",15,121,1,1,5737.3,82,50,226,295,322.2,7,8
"1047",15,121,1,2,5737.3,82,50,226,295,436.1,8,7
"1048",15,121,1,4,5737.3,82,50,226,295,242.4,9,6
"1049",15,121,1,3,5737.3,82,50,226,295,344.1,10,5
"1050",15,121,1,1,5737.3,82,50,226,295,459.2,11,4
"1051",15,121,1,4,5737.3,82,50,226,295,431,12,3
"1052",15,121,1,3,5737.3,82,50,226,295,190.1,13,2
"1053",15,121,1,1,5737.3,82,50,226,295,57.3000000000006,14,1
"1054",15,122,0,1,2056,70,100,245,110,259,1,6
"1055",15,122,0,2,2056,70,100,245,110,225.94,2,5
"1056",15,122,0,4,2056,70,100,245,110,245.08,3,4
"1057",15,122,0,3,2056,70,100,245,110,285.9,4,3
"1058",15,122,0,1,2056,70,100,245,110,245.9,5,2
"1059",15,122,0,2,2056,70,100,245,110,274.8,6,1
"10701",15,124,0,1,1741.9,149,138,154,289,170.94,1,5
"10711",15,124,0,2,1741.9,149,138,154,289,210.15,2,4
"10721",15,124,0,1,1741.9,149,138,154,289,243.91,3,3
"10731",15,124,0,4,1741.9,149,138,154,289,212.2,4,2
"1074",15,124,0,2,1741.9,149,138,154,289,98.8,5,1
"10791",15,126,0,1,2219.4,15,73,259,99,172.08,1,7
"10801",15,126,0,2,2219.4,15,73,259,99,236.05,2,6
"10811",15,126,0,4,2219.4,15,73,259,99,232.83,3,5
"10821",15,126,0,3,2219.4,15,73,259,99,266.89,4,4
"10831",15,126,0,1,2219.4,15,73,259,99,41.9,5,3
"10841",15,126,0,2,2219.4,15,73,259,99,349.9,6,2
"10851",15,126,0,4,2219.4,15,73,259,99,337.2,7,1
"1094",15,128,0,1,2374.9,61,82,219,179,181.04,1,7
"1095",15,128,0,2,2374.9,61,82,219,179,396.23,2,6
"1096",15,128,0,4,2374.9,61,82,219,179,364.88,3,5
"1097",15,128,0,3,2374.9,61,82,219,179,229.1,4,4
"1098",15,128,0,4,2374.9,61,82,219,179,249.9,5,3
"1099",15,128,0,2,2374.9,61,82,219,179,322.1,6,2
"1100",15,128,0,1,2374.9,61,82,219,179,125,7,1
"1108",15,130,1,4,5748.1,110,80,135,294,195.87,1,11
"1109",15,130,1,2,5748.1,110,80,135,294,951.89,2,10
"11101",15,130,1,1,5748.1,110,80,135,294,424.2,3,9
"11111",15,130,1,3,5748.1,110,80,135,294,338.9,4,8
"11121",15,130,1,4,5748.1,110,80,135,294,197.1,5,7
"11131",15,130,1,2,5748.1,110,80,135,294,1116,6,6
"11141",15,130,1,1,5748.1,110,80,135,294,179.1,7,5
"1115",15,130,1,2,5748.1,110,80,135,294,388.299999999999,8,4
"1116",15,130,1,1,5748.1,110,80,135,294,226.999999999999,9,3
"1117",15,130,1,3,5748.1,110,80,135,294,600,10,2
"1118",15,130,1,1,5748.1,110,80,135,294,250.9,11,1
"1119",15,131,0,1,2325.8,70,126,270,140,167.86,1,5
"11201",15,131,0,2,2325.8,70,126,270,140,221.99,2,4
"11211",15,131,0,4,2325.8,70,126,270,140,630.83,3,3
"11221",15,131,0,2,2325.8,70,126,270,140,234,4,2
"11231",15,131,0,4,2325.8,70,126,270,140,589,5,1
"11241",15,132,0,2,8669.6,150,140,160,209,223.89,1,18
"11251",15,132,0,4,8669.6,150,140,160,209,350.08,2,17
"11261",15,132,0,1,8669.6,150,140,160,209,606.1,3,16
"11271",15,132,0,4,8669.6,150,140,160,209,981.4,4,15
"11281",15,132,0,3,8669.6,150,140,160,209,1.99999999999978,5,14
"11291",15,132,0,1,8669.6,150,140,160,209,219.9,6,13
"11301",15,132,0,2,8669.6,150,140,160,209,287,7,12
"11311",15,132,0,4,8669.6,150,140,160,209,550,8,11
"11321",15,132,0,2,8669.6,150,140,160,209,173,9,10
"11331",15,132,0,1,8669.6,150,140,160,209,204.1,10,9
"11341",15,132,0,2,8669.6,150,140,160,209,300.1,11,8
"11351",15,132,0,1,8669.6,150,140,160,209,262,12,7
"11361",15,132,0,2,8669.6,150,140,160,209,795,13,6
"11371",15,132,0,3,8669.6,150,140,160,209,239.2,14,5
"11381",15,132,0,4,8669.6,150,140,160,209,434.8,15,4
"11391",15,132,0,1,8669.6,150,140,160,209,43.9000000000007,16,3
"11401",15,132,0,2,8669.6,150,140,160,209,349.1,17,2
"1141",15,132,0,4,8669.6,150,140,160,209,246.8,18,1
"1142",15,133,0,3,3863.1,72,50,130,252,197.01,1,10
"1143",15,133,0,1,3863.1,72,50,130,252,212.95,2,9
"1144",15,133,0,2,3863.1,72,50,130,252,424.19,3,8
"1145",15,133,0,4,3863.1,72,50,130,252,422.1,4,7
"1146",15,133,0,3,3863.1,72,50,130,252,236.1,5,6
"1147",15,133,0,1,3863.1,72,50,130,252,242,6,5
"1148",15,133,0,2,3863.1,72,50,130,252,277,7,4
"1149",15,133,0,4,3863.1,72,50,130,252,372.1,8,3
"1150",15,133,0,3,3863.1,72,50,130,252,231.1,9,2
"1151",15,133,0,2,3863.1,72,50,130,252,201.9,10,1
"1152",15,134,0,1,4064.8,130,100,144,284,206.12,1,12
"1153",15,134,0,2,4064.8,130,100,144,284,447.94,2,11
"1154",15,134,0,1,4064.8,130,100,144,284,613.05,3,10
"1155",15,134,0,3,4064.8,130,100,144,284,141.1,4,9
"1156",15,134,0,4,4064.8,130,100,144,284,351.9,5,8
"1157",15,134,0,2,4064.8,130,100,144,284,16.9000000000001,6,7
"1158",15,134,0,1,4064.8,130,100,144,284,314,7,6
"1159",15,134,0,2,4064.8,130,100,144,284,271.1,8,5
"1160",15,134,0,1,4064.8,130,100,144,284,215,9,4
"1161",15,134,0,3,4064.8,130,100,144,284,332.1,10,3
"1162",15,134,0,4,4064.8,130,100,144,284,246.9,11,2
"1163",15,134,0,2,4064.8,130,100,144,284,247.1,12,1
"1164",15,135,0,1,2370.8,55,87,266,151,145.88,1,8
"1165",15,135,0,2,2370.8,55,87,266,151,327.03,2,7
"1166",15,135,0,4,2370.8,55,87,266,151,224.99,3,6
"1167",15,135,0,3,2370.8,55,87,266,151,244.35,4,5
"1168",15,135,0,1,2370.8,55,87,266,151,40,5,4
"1169",15,135,0,2,2370.8,55,87,266,151,326.8,6,3
"1170",15,135,0,4,2370.8,55,87,266,151,261.1,7,2
"11711",15,135,0,2,2370.8,55,87,266,151,201.9,8,1
"11821",15,137,0,1,3772,165,154,203,272,197.12,1,14
"11831",15,137,0,2,3772,165,154,203,272,405.11,2,13
"11841",15,137,0,1,3772,165,154,203,272,429.19,3,12
"11851",15,137,0,4,3772,165,154,203,272,140.9,4,11
"11861",15,137,0,2,3772,165,154,203,272,7.10000000000011,5,10
"11871",15,137,0,1,3772,165,154,203,272,2.90000000000012,6,9
"11881",15,137,0,2,3772,165,154,203,272,8.79999999999992,7,8
"11891",15,137,0,4,3772,165,154,203,272,172.1,8,7
"11901",15,137,0,2,3772,165,154,203,272,379.1,9,6
"11911",15,137,0,1,3772,165,154,203,272,365.6,10,5
"1192",15,137,0,4,3772,165,154,203,272,127.9,11,4
"1193",15,137,0,3,3772,165,154,203,272,207.2,12,3
"1194",15,137,0,4,3772,165,154,203,272,172.9,13,2
"1195",15,137,0,2,3772,165,154,203,272,348.9,14,1
"1196",15,138,0,1,5484.8,119,135,278,229,164.9,1,10
"1197",15,138,0,2,5484.8,119,135,278,229,341.34,2,9
"1198",15,138,0,4,5484.8,119,135,278,229,229,3,8
"1199",15,138,0,3,5484.8,119,135,278,229,430.1,4,7
"1200",15,138,0,1,5484.8,119,135,278,229,212,5,6
"1201",15,138,0,2,5484.8,119,135,278,229,1749,6,5
"1202",15,138,0,4,5484.8,119,135,278,229,381,7,4
"1203",15,138,0,3,5484.8,119,135,278,229,1.99999999999978,8,3
"1204",15,138,0,4,5484.8,119,135,278,229,355.9,9,2
"1205",15,138,0,2,5484.8,119,135,278,229,147.8,10,1
"1224",15,141,1,1,2260.3,99,77,221,277,238.75,1,7
"1225",15,141,1,3,2260.3,99,77,221,277,251.88,2,6
"1226",15,141,1,4,2260.3,99,77,221,277,362.13,3,5
"1227",15,141,1,2,2260.3,99,77,221,277,289.2,4,4
"1228",15,141,1,1,2260.3,99,77,221,277,288.3,5,3
"1229",15,141,1,3,2260.3,99,77,221,277,358.3,6,2
"1230",15,141,1,4,2260.3,99,77,221,277,122.7,7,1
"1250",15,143,1,1,6122,13,54,281,95,168.8,1,13
"12511",15,143,1,2,6122,13,54,281,95,234,2,12
"1252",15,143,1,4,6122,13,54,281,95,311.92,3,11
"1253",15,143,1,3,6122,13,54,281,95,200.98,4,10
"1254",15,143,1,1,6122,13,54,281,95,272.1,5,9
"1255",15,143,1,2,6122,13,54,281,95,283.4,6,8
"1256",15,143,1,4,6122,13,54,281,95,556.1,7,7
"1257",15,143,1,2,6122,13,54,281,95,1846.1,8,6
"1258",15,143,1,1,6122,13,54,281,95,417.1,9,5
"1259",15,143,1,2,6122,13,54,281,95,237,10,4
"1260",15,143,1,4,6122,13,54,281,95,552,11,3
"12611",15,143,1,2,6122,13,54,281,95,223,12,2
"1262",15,143,1,1,6122,13,54,281,95,282.3,13,1
"1263",15,144,0,1,6234.5,86,98,274,227,167.91,1,14
"1264",15,144,0,2,6234.5,86,98,274,227,318.03,2,13
"1265",15,144,0,1,6234.5,86,98,274,227,234.96,3,12
"1266",15,144,0,2,6234.5,86,98,274,227,316.1,4,11
"1267",15,144,0,1,6234.5,86,98,274,227,5.29999999999986,5,10
"1268",15,144,0,3,6234.5,86,98,274,227,15.0000000000001,6,9
"1269",15,144,0,4,6234.5,86,98,274,227,290,7,8
"1270",15,144,0,2,6234.5,86,98,274,227,354.1,8,7
"1271",15,144,0,1,6234.5,86,98,274,227,15.7000000000007,9,6
"1272",15,144,0,3,6234.5,86,98,274,227,154.999999999999,10,5
"1273",15,144,0,4,6234.5,86,98,274,227,468,11,4
"1274",15,144,0,3,6234.5,86,98,274,227,195.9,12,3
"1275",15,144,0,4,6234.5,86,98,274,227,364,13,2
"1276",15,144,0,2,6234.5,86,98,274,227,143.599999999999,14,1
"1285",15,146,0,1,6799.3,89,59,90,250,227.79,1,17
"1286",15,146,0,2,6799.3,89,59,90,250,468.66,2,16
"1287",15,146,0,4,6799.3,89,59,90,250,346.06,3,15
"1288",15,146,0,3,6799.3,89,59,90,250,362.1,4,14
"1289",15,146,0,2,6799.3,89,59,90,250,292.1,5,13
"1290",15,146,0,4,6799.3,89,59,90,250,401,6,12
"1291",15,146,0,2,6799.3,89,59,90,250,294.1,7,11
"1292",15,146,0,1,6799.3,89,59,90,250,436.1,8,10
"1293",15,146,0,2,6799.3,89,59,90,250,271.1,9,9
"1294",15,146,0,1,6799.3,89,59,90,250,17.9,10,8
"1295",15,146,0,3,6799.3,89,59,90,250,532.999999999999,11,7
"1296",15,146,0,1,6799.3,89,59,90,250,303.9,12,6
"1297",15,146,0,3,6799.3,89,59,90,250,308.1,13,5
"1298",15,146,0,4,6799.3,89,59,90,250,588.9,14,4
"1299",15,146,0,2,6799.3,89,59,90,250,317.100000000001,15,3
"1300",15,146,0,1,6799.3,89,59,90,250,345.1,16,2
"1301",15,146,0,2,6799.3,89,59,90,250,103.4,17,1
"1308",15,148,1,1,6125,100,76,150,257,195.99,1,15
"1309",15,148,1,2,6125,100,76,150,257,390.06,2,14
"13101",15,148,1,4,6125,100,76,150,257,215.09,3,13
"1311",15,148,1,3,6125,100,76,150,257,453.1,4,12
"1312",15,148,1,1,6125,100,76,150,257,23.0999999999999,5,11
"1313",15,148,1,2,6125,100,76,150,257,248,6,10
"1314",15,148,1,4,6125,100,76,150,257,464.2,7,9
"1315",15,148,1,3,6125,100,76,150,257,3.90000000000024,8,8
"1316",15,148,1,4,6125,100,76,150,257,364.3,9,7
"1317",15,148,1,1,6125,100,76,150,257,612.1,10,6
"1318",15,148,1,2,6125,100,76,150,257,444.1,11,5
"1319",15,148,1,1,6125,100,76,150,257,316.1,12,4
"1320",15,148,1,3,6125,100,76,150,257,240.9,13,3
"1321",15,148,1,4,6125,100,76,150,257,281.8,14,2
"1322",15,148,1,3,6125,100,76,150,257,5.19999999999943,15,1
"1323",15,149,0,1,5966.1,119,100,125,285,212.97,1,16
"1324",15,149,0,2,5966.1,119,100,125,285,180.97,2,15
"1325",15,149,0,1,5966.1,119,100,125,285,16.32,3,14
"1326",15,149,0,3,5966.1,119,100,125,285,179.05,4,13
"1327",15,149,0,4,5966.1,119,100,125,285,339,5,12
"1328",15,149,0,2,5966.1,119,100,125,285,200.9,6,11
"1329",15,149,0,1,5966.1,119,100,125,285,374.1,7,10
"1330",15,149,0,2,5966.1,119,100,125,285,60.9999999999999,8,9
"1331",15,149,0,1,5966.1,119,100,125,285,4.90000000000013,9,8
"1332",15,149,0,2,5966.1,119,100,125,285,7.8999999999998,10,7
"1333",15,149,0,4,5966.1,119,100,125,285,179,11,6
"1334",15,149,0,3,5966.1,119,100,125,285,232.9,12,5
"1335",15,149,0,4,5966.1,119,100,125,285,16.9000000000006,13,4
"1336",15,149,0,2,5966.1,119,100,125,285,524.9,14,3
"1337",15,149,0,4,5966.1,119,100,125,285,445.3,15,2
"1338",15,149,0,2,5966.1,119,100,125,285,19.0999999999999,16,1
"1360",15,151,0,1,8170.6,10,63,284,153,133.85,1,17
"1361",15,151,0,2,8170.6,10,63,284,153,214.22,2,16
"1362",15,151,0,4,8170.6,10,63,284,153,275.15,3,15
"1363",15,151,0,3,8170.6,10,63,284,153,225.9,4,14
"1364",15,151,0,4,8170.6,10,63,284,153,584.1,5,13
"1365",15,151,0,2,8170.6,10,63,284,153,439.1,6,12
"1366",15,151,0,3,8170.6,10,63,284,153,619.9,7,11
"1367",15,151,0,2,8170.6,10,63,284,153,327,8,10
"1368",15,151,0,4,8170.6,10,63,284,153,435.000000000001,9,9
"1369",15,151,0,2,8170.6,10,63,284,153,330.8,10,8
"1370",15,151,0,3,8170.6,10,63,284,153,183.000000000001,11,7
"13711",15,151,0,1,8170.6,10,63,284,153,204.1,12,6
"1372",15,151,0,2,8170.6,10,63,284,153,587.899999999999,13,5
"1373",15,151,0,4,8170.6,10,63,284,153,219,14,4
"1374",15,151,0,3,8170.6,10,63,284,153,299.1,15,3
"1375",15,151,0,2,8170.6,10,63,284,153,996.2,16,2
"1376",15,151,0,4,8170.6,10,63,284,153,62.5999999999998,17,1
"1377",15,152,0,4,4203.3,62,55,141,267,185.04,1,8
"1378",15,152,0,2,4203.3,62,55,141,267,660.93,2,7
"1379",15,152,0,3,4203.3,62,55,141,267,256.9,3,6
"1380",15,152,0,1,4203.3,62,55,141,267,20.1,4,5
"13811",15,152,0,2,4203.3,62,55,141,267,211.8,5,4
"1382",15,152,0,4,4203.3,62,55,141,267,239.1,6,3
"1383",15,152,0,2,4203.3,62,55,141,267,1098.2,7,2
"1384",15,152,0,4,4203.3,62,55,141,267,212.4,8,1
"1385",15,153,1,1,1770.7,121,90,192,260,185.77,1,5
"1386",15,153,1,2,1770.7,121,90,192,260,446.1,2,4
"1387",15,153,1,3,1770.7,121,90,192,260,8.79999999999992,3,3
"1388",15,153,1,4,1770.7,121,90,192,260,392.8,4,2
"1389",15,153,1,3,1770.7,121,90,192,260,32,5,1
"1390",15,154,1,2,3977.5,120,133,280,150,392.93,1,5
"13911",15,154,1,4,3977.5,120,133,280,150,295.9,2,4
"1392",15,154,1,2,3977.5,120,133,280,150,1528.8,3,3
"1393",15,154,1,1,3977.5,120,133,280,150,17.9,4,2
"1394",15,154,1,3,3977.5,120,133,280,150,24,5,1
"1415",15,158,1,1,1707.1,78,46,154,260,194.95,1,5
"1416",15,158,1,2,1707.1,78,46,154,260,365.11,2,4
"1417",15,158,1,4,1707.1,78,46,154,260,203.1,3,3
"1418",15,158,1,3,1707.1,78,46,154,260,283.1,4,2
"1419",15,158,1,1,1707.1,78,46,154,260,132.4,5,1
"1427",15,160,0,1,9017.6,90,70,100,300,169.83,1,18
"1428",15,160,0,2,9017.6,90,70,100,300,207.86,2,17
"1429",15,160,0,4,9017.6,90,70,100,300,234.84,3,16
"1430",15,160,0,3,9017.6,90,70,100,300,307.84,4,15
"14311",15,160,0,2,9017.6,90,70,100,300,430.1,5,14
"1432",15,160,0,1,9017.6,90,70,100,300,220,6,13
"1433",15,160,0,2,9017.6,90,70,100,300,448,7,12
"1434",15,160,0,3,9017.6,90,70,100,300,179.9,8,11
"1435",15,160,0,4,9017.6,90,70,100,300,66.9,9,10
"1436",15,160,0,3,9017.6,90,70,100,300,346,10,9
"1437",15,160,0,1,9017.6,90,70,100,300,1114.9,11,8
"1438",15,160,0,3,9017.6,90,70,100,300,405.1,12,7
"1439",15,160,0,1,9017.6,90,70,100,300,315,13,6
"1440",15,160,0,2,9017.6,90,70,100,300,677,14,5
"1441",15,160,0,4,9017.6,90,70,100,300,204.800000000001,15,4
"1442",15,160,0,1,9017.6,90,70,100,300,236,16,3
"1443",15,160,0,2,9017.6,90,70,100,300,334,17,2
"1444",15,160,0,4,9017.6,90,70,100,300,498.3,18,1
"1454",15,162,1,3,5078.4,71,52,100,200,171.98,1,9
"1455",15,162,1,4,5078.4,71,52,100,200,153.98,2,8
"1456",15,162,1,2,5078.4,71,52,100,200,158.06,3,7
"1457",15,162,1,1,5078.4,71,52,100,200,178.61,4,6
"1458",15,162,1,2,5078.4,71,52,100,200,2946.7,5,5
"1459",15,162,1,1,5078.4,71,52,100,200,5.39999999999985,6,4
"1460",15,162,1,2,5078.4,71,52,100,200,12.6999999999997,7,3
"1461",15,162,1,4,5078.4,71,52,100,200,503.1,8,2
"1462",15,162,1,2,5078.4,71,52,100,200,13.6000000000003,9,1
"1463",15,163,0,2,4723.5,59,95,294,110,1097.93,1,5
"1464",15,163,0,4,4723.5,59,95,294,110,272.2,2,4
"1465",15,163,0,3,4723.5,59,95,294,110,330,3,3
"1466",15,163,0,1,4723.5,59,95,294,110,7.90000000000024,4,2
"1467",15,163,0,2,4723.5,59,95,294,110,1934.4,5,1
"1509",15,167,1,1,4675.5,90,72,208,246,194.03,1,10
"1510",15,167,1,2,4675.5,90,72,208,246,300.14,2,9
"1511",15,167,1,3,4675.5,90,72,208,246,40.0699999999999,3,8
"1512",15,167,1,4,4675.5,90,72,208,246,470,4,7
"1513",15,167,1,1,4675.5,90,72,208,246,11.3000000000003,5,6
"1514",15,167,1,2,4675.5,90,72,208,246,1038.1,6,5
"1515",15,167,1,1,4675.5,90,72,208,246,202.9,7,4
"1516",15,167,1,2,4675.5,90,72,208,246,400.9,8,3
"1517",15,167,1,3,4675.5,90,72,208,246,449.199999999999,9,2
"1518",15,167,1,1,4675.5,90,72,208,246,19.0000000000001,10,1
"1526",15,169,1,1,3701.7,80,51,104,260,150.87,1,8
"1527",15,169,1,2,3701.7,80,51,104,260,190.95,2,7
"1528",15,169,1,4,3701.7,80,51,104,260,232.08,3,6
"1529",15,169,1,3,3701.7,80,51,104,260,85.0000000000002,4,5
"1530",15,169,1,4,3701.7,80,51,104,260,933,5,4
"15311",15,169,1,2,3701.7,80,51,104,260,445,6,3
"1532",15,169,1,3,3701.7,80,51,104,260,421.5,7,2
"1533",15,169,1,1,3701.7,80,51,104,260,39.0000000000001,8,1
"1534",15,170,0,1,2838.8,32,78,215,96,180.83,1,7
"1535",15,170,0,2,2838.8,32,78,215,96,221.92,2,6
"1536",15,170,0,4,2838.8,32,78,215,96,250,3,5
"1537",15,170,0,3,2838.8,32,78,215,96,384.9,4,4
"1538",15,170,0,1,2838.8,32,78,215,96,236,5,3
"1539",15,170,0,4,2838.8,32,78,215,96,365.9,6,2
"1540",15,170,0,2,2838.8,32,78,215,96,624.9,7,1
"15411",15,171,0,3,2826.6,37,83,290,156,82.7,1,7
"1542",15,171,0,4,2826.6,37,83,290,156,288.95,2,6
"1543",15,171,0,2,2826.6,37,83,290,156,399.96,3,5
"1544",15,171,0,4,2826.6,37,83,290,156,477.2,4,4
"1545",15,171,0,1,2826.6,37,83,290,156,258,5,3
"1546",15,171,0,3,2826.6,37,83,290,156,222,6,2
"1547",15,171,0,4,2826.6,37,83,290,156,405,7,1
"1548",15,172,0,2,5063.7,47,64,283,101,323.74,1,10
"1549",15,172,0,4,5063.7,47,64,283,101,257.18,2,9
"1550",15,172,0,3,5063.7,47,64,283,101,12.5000000000002,3,8
"15511",15,172,0,1,5063.7,47,64,283,101,172.9,4,7
"1552",15,172,0,2,5063.7,47,64,283,101,406,5,6
"1553",15,172,0,3,5063.7,47,64,283,101,265.1,6,5
"1554",15,172,0,1,5063.7,47,64,283,101,334.9,7,4
"1555",15,172,0,3,5063.7,47,64,283,101,286.1,8,3
"1556",15,172,0,4,5063.7,47,64,283,101,510.9,9,2
"1557",15,172,0,2,5063.7,47,64,283,101,1266.8,10,1
"1568",15,174,0,1,2034.8,99,89,202,292,147.73,1,6
"1569",15,174,0,2,2034.8,99,89,202,292,185.28,2,5
"1570",15,174,0,1,2034.8,99,89,202,292,123.01,3,4
"15711",15,174,0,3,2034.8,99,89,202,292,130.04,4,3
"1572",15,174,0,4,2034.8,99,89,202,292,11.1000000000001,5,2
"1573",15,174,0,2,2034.8,99,89,202,292,863,6,1
"15811",15,176,1,1,2161.5,97,54,174,249,376.01,1,6
"1582",15,176,1,3,2161.5,97,54,174,249,191.96,2,5
"1583",15,176,1,4,2161.5,97,54,174,249,346.28,3,4
"1584",15,176,1,2,2161.5,97,54,174,249,325.8,4,3
"1585",15,176,1,1,2161.5,97,54,174,249,259.1,5,2
"1586",15,176,1,3,2161.5,97,54,174,249,398,6,1
"1609",15,179,0,2,3059.2,135,121,232,299,185.89,1,8
"1610",15,179,0,3,3059.2,135,121,232,299,230.08,2,7
"1611",15,179,0,4,3059.2,135,121,232,299,13.2000000000001,3,6
"1612",15,179,0,2,3059.2,135,121,232,299,274.9,4,5
"1613",15,179,0,1,3059.2,135,121,232,299,180,5,4
"1614",15,179,0,2,3059.2,135,121,232,299,734,6,3
"1615",15,179,0,1,3059.2,135,121,232,299,155,7,2
"1616",15,179,0,4,3059.2,135,121,232,299,70.2000000000003,8,1
"1617",15,180,0,1,4061.7,40,83,280,116,6.78999999999999,1,7
"1618",15,180,0,2,4061.7,40,83,280,116,195.96,2,6
"1619",15,180,0,4,4061.7,40,83,280,116,214.97,3,5
"1620",15,180,0,3,4061.7,40,83,280,116,10.9999999999999,4,4
"1621",15,180,0,1,4061.7,40,83,280,116,585.9,5,3
"1622",15,180,0,2,4061.7,40,83,280,116,1053.9,6,2
"1623",15,180,0,4,4061.7,40,83,280,116,365.8,7,1
"1656",15,185,1,1,3179.4,117,92,162,236,162.88,1,9
"1657",15,185,1,2,3179.4,117,92,162,236,209.12,2,8
"1658",15,185,1,4,3179.4,117,92,162,236,252.89,3,7
"1659",15,185,1,3,3179.4,117,92,162,236,5.1000000000001,4,6
"1660",15,185,1,1,3179.4,117,92,162,236,526,5,5
"1661",15,185,1,3,3179.4,117,92,162,236,298.1,6,4
"1662",15,185,1,4,3179.4,117,92,162,236,284,7,3
"1663",15,185,1,2,3179.4,117,92,162,236,380.2,8,2
"1664",15,185,1,4,3179.4,117,92,162,236,222.8,9,1
"1673",15,187,0,1,2470.2,40,70,159,78,206.81,1,8
"1674",15,187,0,2,2470.2,40,70,159,78,222.17,2,7
"1675",15,187,0,4,2470.2,40,70,159,78,346.03,3,6
"1676",15,187,0,2,2470.2,40,70,159,78,43.9,4,5
"1677",15,187,0,1,2470.2,40,70,159,78,164.2,5,4
"1678",15,187,0,3,2470.2,40,70,159,78,367.9,6,3
"1679",15,187,0,2,2470.2,40,70,159,78,219.3,7,2
"1680",15,187,0,4,2470.2,40,70,159,78,111.8,8,1
"1681",15,188,0,2,2185.6,55,85,285,95,332.98,1,4
"1682",15,188,0,4,2185.6,55,85,285,95,784,2,3
"1683",15,188,0,1,2185.6,55,85,285,95,196,3,2
"1684",15,188,0,4,2185.6,55,85,285,95,121.8,4,1
"1701",15,190,1,1,8924.2,87,20,139,297,124.94,1,19
"1702",15,190,1,2,8924.2,87,20,139,297,218.98,2,18
"1703",15,190,1,1,8924.2,87,20,139,297,243.98,3,17
"1704",15,190,1,3,8924.2,87,20,139,297,170.09,4,16
"1705",15,190,1,4,8924.2,87,20,139,297,115.9,5,15
"1706",15,190,1,2,8924.2,87,20,139,297,207.8,6,14
"1707",15,190,1,1,8924.2,87,20,139,297,488,7,13
"1708",15,190,1,3,8924.2,87,20,139,297,450.9,8,12
"1709",15,190,1,1,8924.2,87,20,139,297,367,9,11
"1710",15,190,1,3,8924.2,87,20,139,297,2.90000000000035,10,10
"1711",15,190,1,1,8924.2,87,20,139,297,562,11,9
"1712",15,190,1,2,8924.2,87,20,139,297,763.6,12,8
"1713",15,190,1,1,8924.2,87,20,139,297,462.1,13,7
"1714",15,190,1,2,8924.2,87,20,139,297,670.2,14,6
"1715",15,190,1,4,8924.2,87,20,139,297,443,15,5
"1716",15,190,1,2,8924.2,87,20,139,297,220.9,16,4
"1717",15,190,1,1,8924.2,87,20,139,297,246.9,17,3
"1718",15,190,1,3,8924.2,87,20,139,297,538.2,18,2
"1719",15,190,1,1,8924.2,87,20,139,297,19.0000000000001,19,1
"1735",15,193,1,2,3112.6,100,70,101,293,441.12,1,6
"1736",15,193,1,4,3112.6,100,70,101,293,195.97,2,5
"1737",15,193,1,3,3112.6,100,70,101,293,341.9,3,4
"1738",15,193,1,1,3112.6,100,70,101,293,249,4,3
"1739",15,193,1,2,3112.6,100,70,101,293,1255.1,5,2
"1740",15,193,1,1,3112.6,100,70,101,293,119.6,6,1
"1741",15,194,0,1,3585.2,44,88,280,122,199.76,1,8
"1742",15,194,0,2,3585.2,44,88,280,122,184.1,2,7
"1743",15,194,0,4,3585.2,44,88,280,122,310.18,3,6
"1744",15,194,0,3,3585.2,44,88,280,122,234.11,4,5
"1745",15,194,0,4,3585.2,44,88,280,122,1301.2,5,4
"1746",15,194,0,2,3585.2,44,88,280,122,226,6,3
"1747",15,194,0,4,3585.2,44,88,280,122,201.1,7,2
"1748",15,194,0,2,3585.2,44,88,280,122,72.2999999999998,8,1
"1755",15,196,0,2,4245.4,163,183,290,221,270.8,1,8
"1756",15,196,0,4,4245.4,163,183,290,221,446,2,7
"1757",15,196,0,1,4245.4,163,183,290,221,4.09999999999999,3,6
"1758",15,196,0,2,4245.4,163,183,290,221,605.8,4,5
"1759",15,196,0,4,4245.4,163,183,290,221,1045.1,5,4
"1760",15,196,0,3,4245.4,163,183,290,221,16,6,3
"1761",15,196,0,1,4245.4,163,183,290,221,192,7,2
"1762",15,196,0,2,4245.4,163,183,290,221,279.6,8,1
"1773",15,198,1,1,4226.8,100,48,111,293,222.98,1,5
"1774",15,198,1,2,4226.8,100,48,111,293,255.03,2,4
"1775",15,198,1,4,4226.8,100,48,111,293,237.98,3,3
"1776",15,198,1,3,4226.8,100,48,111,293,251.1,4,2
"1777",15,198,1,1,4226.8,100,48,111,293,223.9,5,1
"1778",15,199,0,1,5712.1,65,76,220,144,135.95,1,8
"1779",15,199,0,2,5712.1,65,76,220,144,1280.85,2,7
"1780",15,199,0,4,5712.1,65,76,220,144,195,3,6
"1781",15,199,0,3,5712.1,65,76,220,144,250.2,4,5
"1782",15,199,0,2,5712.1,65,76,220,144,2307.8,5,4
"1783",15,199,0,4,5712.1,65,76,220,144,216,6,3
"1784",15,199,0,3,5712.1,65,76,220,144,132.9,7,2
"1785",15,199,0,2,5712.1,65,76,220,144,244.3,8,1
"1624",16,3,0,2,1516.1,13,54,281,95,195.03,1,3
"1720",16,3,0,1,1516.1,13,54,281,95,495.03,2,2
"1810",16,3,0,2,1516.1,13,54,281,95,556.1,3,1
"1910",16,4,1,2,3106.8,77,27,159,296,569.79,1,6
"2010",16,4,1,4,3106.8,77,27,159,296,234.83,2,5
"2110",16,4,1,2,3106.8,77,27,159,296,267,3,4
"2213",16,4,1,1,3106.8,77,27,159,296,301,4,3
"2310",16,4,1,3,3106.8,77,27,159,296,600.1,5,2
"2414",16,4,1,1,3106.8,77,27,159,296,672,6,1
"324",16,6,1,1,2944.9,50,70,297,100,477.93,1,6
"3310",16,6,1,3,2944.9,50,70,297,100,295.88,2,5
"3410",16,6,1,1,2944.9,50,70,297,100,238.1,3,4
"3510",16,6,1,2,2944.9,50,70,297,100,278.2,4,3
"3610",16,6,1,4,2944.9,50,70,297,100,599,5,2
"3710",16,6,1,2,2944.9,50,70,297,100,187.9,6,1
"388",16,7,0,1,1266.8,92,117,236,162,187.81,1,3
"3910",16,7,0,2,1266.8,92,117,236,162,268.08,2,2
"4010",16,7,0,4,1266.8,92,117,236,162,565.76,3,1
"4711",16,9,0,2,2738.9,32,78,215,96,310.89,1,6
"4813",16,9,0,4,2738.9,32,78,215,96,281.86,2,5
"4912",16,9,0,3,2738.9,32,78,215,96,324.2,3,4
"5011",16,9,0,1,2738.9,32,78,215,96,831,4,3
"5112",16,9,0,3,2738.9,32,78,215,96,302.1,5,2
"5210",16,9,0,2,2738.9,32,78,215,96,331.7,6,1
"535",16,10,0,1,6760.4,54,85,186,126,202.06,1,10
"5410",16,10,0,2,6760.4,54,85,186,126,307.02,2,9
"5510",16,10,0,4,6760.4,54,85,186,126,1136.86,3,8
"5611",16,10,0,1,6760.4,54,85,186,126,78.9,4,7
"5711",16,10,0,2,6760.4,54,85,186,126,1066.4,5,6
"5810",16,10,0,4,6760.4,54,85,186,126,1642,6,5
"5910",16,10,0,3,6760.4,54,85,186,126,296,7,4
"6010",16,10,0,1,6760.4,54,85,186,126,280.1,8,3
"6110",16,10,0,2,6760.4,54,85,186,126,795,9,2
"62",16,10,0,4,6760.4,54,85,186,126,411.7,10,1
"63",16,11,0,2,3708.6,90,70,100,300,23.85,1,9
"64",16,11,0,4,3708.6,90,70,100,300,215.93,2,8
"65",16,11,0,2,3708.6,90,70,100,300,294.17,3,7
"66",16,11,0,1,3708.6,90,70,100,300,471.9,4,6
"67",16,11,0,3,3708.6,90,70,100,300,420,5,5
"686",16,11,0,1,3708.6,90,70,100,300,319.1,6,4
"6910",16,11,0,2,3708.6,90,70,100,300,502,7,3
"7010",16,11,0,1,3708.6,90,70,100,300,401.1,8,2
"7111",16,11,0,4,3708.6,90,70,100,300,121.8,9,1
"79",16,13,1,2,2834,69,52,176,282,218.93,1,8
"80",16,13,1,4,2834,69,52,176,282,195,2,7
"812",16,13,1,1,2834,69,52,176,282,343.02,3,6
"828",16,13,1,3,2834,69,52,176,282,613.1,4,5
"831",16,13,1,1,2834,69,52,176,282,243.9,5,4
"8410",16,13,1,2,2834,69,52,176,282,423,6,3
"856",16,13,1,1,2834,69,52,176,282,237,7,2
"866",16,13,1,4,2834,69,52,176,282,24.7000000000002,8,1
"9010",16,15,1,1,1552.1,117,85,125,278,247.95,1,5
"914",16,15,1,2,1552.1,117,85,125,278,292.95,2,4
"9210",16,15,1,1,1552.1,117,85,125,278,203.91,3,3
"9310",16,15,1,3,1552.1,117,85,125,278,205.1,4,2
"9412",16,15,1,4,1552.1,117,85,125,278,293.7,5,1
"952",16,16,0,1,1294.5,163,183,290,221,176.74,1,4
"9611",16,16,0,2,1294.5,163,183,290,221,248.09,2,3
"9711",16,16,0,4,1294.5,163,183,290,221,273.93,3,2
"982",16,16,0,3,1294.5,163,183,290,221,323.96,4,1
"9912",16,17,1,2,2346.7,40,70,258,88,277.67,1,7
"10011",16,17,1,4,2346.7,40,70,258,88,266.99,2,6
"1012",16,17,1,3,2346.7,40,70,258,88,247.08,3,5
"1023",16,17,1,1,2346.7,40,70,258,88,336.9,4,4
"1032",16,17,1,3,2346.7,40,70,258,88,336.9,5,3
"10410",16,17,1,1,2346.7,40,70,258,88,344.1,6,2
"10510",16,17,1,2,2346.7,40,70,258,88,197.7,7,1
"1061",16,18,0,2,1356.8,106,149,260,150,234.82,1,4
"1075",16,18,0,4,1356.8,106,149,260,150,271.98,2,3
"10810",16,18,0,3,1356.8,106,149,260,150,228.1,3,2
"1092",16,18,0,2,1356.8,106,149,260,150,356.7,4,1
"1213",16,21,1,1,1556.8,88,44,122,280,171.08,1,6
"1223",16,21,1,2,1556.8,88,44,122,280,272.04,2,5
"1233",16,21,1,1,1556.8,88,44,122,280,224.08,3,4
"1243",16,21,1,3,1556.8,88,44,122,280,220.2,4,3
"12510",16,21,1,4,1556.8,88,44,122,280,268,5,2
"12610",16,21,1,2,1556.8,88,44,122,280,88.2000000000001,6,1
"1277",16,22,0,2,3668.2,52,90,274,94,366.99,1,8
"1281",16,22,0,4,3668.2,52,90,274,94,306.08,2,7
"12910",16,22,0,3,3668.2,52,90,274,94,276.18,3,6
"1302",16,22,0,1,3668.2,52,90,274,94,533,4,5
"13110",16,22,0,3,3668.2,52,90,274,94,173.2,5,4
"13210",16,22,0,2,3668.2,52,90,274,94,468,6,3
"13310",16,22,0,4,3668.2,52,90,274,94,585.1,7,2
"1341",16,22,0,2,3668.2,52,90,274,94,575.4,8,1
"1351",16,23,0,2,1529.6,71,82,288,119,182.94,1,6
"13610",16,23,0,1,1529.6,71,82,288,119,180.97,2,5
"13710",16,23,0,2,1529.6,71,82,288,119,218.11,3,4
"13810",16,23,0,3,1529.6,71,82,288,119,294.06,4,3
"1395",16,23,0,1,1529.6,71,82,288,119,212.2,5,2
"1402",16,23,0,2,1529.6,71,82,288,119,143.5,6,1
"1451",16,25,1,2,1421.1,87,104,280,140,375.93,1,4
"1468",16,25,1,3,1421.1,87,104,280,140,460.81,2,3
"147",16,25,1,1,1421.1,87,104,280,140,299.1,3,2
"148",16,25,1,4,1421.1,87,104,280,140,37.4000000000001,4,1
"149",16,26,0,2,1144.5,119,135,278,229,239.91,1,4
"150",16,26,0,1,1144.5,119,135,278,229,139.91,2,3
"1519",16,26,0,4,1144.5,119,135,278,229,234.9,3,2
"1522",16,26,0,3,1144.5,119,135,278,229,290.59,4,1
"1558",16,28,0,2,1420.4,95,110,221,150,485.94,1,4
"1562",16,28,0,4,1420.4,95,110,221,150,228.93,2,3
"1574",16,28,0,3,1420.4,95,110,221,150,156,3,2
"1587",16,28,0,1,1420.4,95,110,221,150,214.3,4,1
"1591",16,29,0,2,1591.3,50,72,252,130,245.79,1,6
"160",16,29,0,1,1591.3,50,72,252,130,214.09,2,5
"161",16,29,0,4,1591.3,50,72,252,130,308.11,3,4
"162",16,29,0,3,1591.3,50,72,252,130,237,4,3
"1631",16,29,0,1,1591.3,50,72,252,130,274,5,2
"1641",16,29,0,2,1591.3,50,72,252,130,6.39999999999996,6,1
"1787",16,32,0,1,1114,75,44,80,291,234.87,1,4
"1792",16,32,0,2,1114,75,44,80,291,162.11,2,3
"1802",16,32,0,4,1114,75,44,80,291,205.07,3,2
"1811",16,32,0,2,1114,75,44,80,291,14.4000000000002,4,1
"1942",16,35,1,1,2887.7,191,173,218,292,135.82,1,6
"1952",16,35,1,2,2887.7,191,173,218,292,203.83,2,5
"1962",16,35,1,4,2887.7,191,173,218,292,617.08,3,4
"1972",16,35,1,2,2887.7,191,173,218,292,554,4,3
"1981",16,35,1,1,2887.7,191,173,218,292,819.1,5,2
"1991",16,35,1,2,2887.7,191,173,218,292,252.9,6,1
"2022",16,37,1,2,3466.1,121,135,299,232,490.84,1,7
"2032",16,37,1,1,3466.1,121,135,299,232,185.9,2,6
"2041",16,37,1,4,3466.1,121,135,299,232,366.6,3,5
"2051",16,37,1,2,3466.1,121,135,299,232,210,4,4
"2061",16,37,1,1,3466.1,121,135,299,232,213.9,5,3
"2071",16,37,1,2,3466.1,121,135,299,232,554.9,6,2
"2081",16,37,1,1,3466.1,121,135,299,232,149.6,7,1
"2131",16,39,0,1,1064.5,100,113,300,141,287.86,1,3
"2141",16,39,0,3,1064.5,100,113,300,141,144.11,2,2
"215",16,39,0,2,1064.5,100,113,300,141,395.41,3,1
"216",16,40,0,4,1587.7,140,150,209,160,0.799999999999995,1,5
"2171",16,40,0,1,1587.7,140,150,209,160,271.61,2,4
"2182",16,40,0,2,1587.7,140,150,209,160,359.04,3,3
"2193",16,40,0,4,1587.7,140,150,209,160,524.9,4,2
"2203",16,40,0,3,1587.7,140,150,209,160,51.3999999999999,5,1
"2214",16,41,1,2,1075.6,73,40,162,283,207.05,1,2
"2222",16,41,1,4,1075.6,73,40,162,283,638.02,2,1
"2232",16,42,1,1,879.66,177,140,204,280,660.04,1,2
"2242",16,42,1,2,879.66,177,140,204,280,14.2,2,1
"2252",16,43,0,2,1813.3,64,47,101,283,307.74,1,5
"2262",16,43,0,1,1813.3,64,47,101,283,317.09,2,4
"2271",16,43,0,4,1813.3,64,47,101,283,207.64,3,3
"2282",16,43,0,3,1813.3,64,47,101,283,252.8,4,2
"2292",16,43,0,2,1813.3,64,47,101,283,246.3,5,1
"235",16,45,0,1,2961.3,85,55,95,285,339.88,1,6
"2361",16,45,0,2,2961.3,85,55,95,285,442.25,2,5
"2371",16,45,0,1,2961.3,85,55,95,285,230.1,3,4
"2381",16,45,0,3,2961.3,85,55,95,285,287,4,3
"2392",16,45,0,4,2961.3,85,55,95,285,347.2,5,2
"2403",16,45,0,2,2961.3,85,55,95,285,713.3,6,1
"2433",16,47,0,2,1909.1,200,215,286,236,261,1,6
"2443",16,47,0,1,1909.1,200,215,286,236,223.14,2,5
"2453",16,47,0,2,1909.1,200,215,286,236,179.7,3,4
"2462",16,47,0,4,1909.1,200,215,286,236,230,4,3
"2471",16,47,0,3,1909.1,200,215,286,236,361,5,2
"2481",16,47,0,2,1909.1,200,215,286,236,102.9,6,1
"2621",16,50,1,2,982.13,78,55,90,290,182.84,1,3
"2632",16,50,1,1,982.13,78,55,90,290,221.88,2,2
"2641",16,50,1,2,982.13,78,55,90,290,265.96,3,1
"2651",16,51,0,1,910.32,80,51,104,260,195.91,1,3
"2661",16,51,0,4,910.32,80,51,104,260,222.95,2,2
"2672",16,51,0,2,910.32,80,51,104,260,236.07,3,1
"2682",16,52,0,2,1868.8,50,82,295,226,185.97,1,5
"2692",16,52,0,4,1868.8,50,82,295,226,302.89,2,4
"2702",16,52,0,2,1868.8,50,82,295,226,192.1,3,3
"2712",16,52,0,1,1868.8,50,82,295,226,225.1,4,2
"2722",16,52,0,2,1868.8,50,82,295,226,120.9,5,1
"2761",16,54,1,2,841.58,163,143,210,285,239.73,1,3
"2771",16,54,1,1,841.58,163,143,210,285,282.3,2,2
"2781",16,54,1,3,841.58,163,143,210,285,77.11,3,1
"2821",16,57,1,1,1117.6,83,37,156,290,330.98,1,3
"2831",16,57,1,3,1117.6,83,37,156,290,496.04,2,2
"284",16,57,1,4,1117.6,83,37,156,290,32,3,1
"285",16,58,0,1,1582.5,15,73,259,99,473.75,1,4
"286",16,58,0,3,1582.5,15,73,259,99,250.86,2,3
"2871",16,58,0,1,1582.5,15,73,259,99,162.9,3,2
"2881",16,58,0,2,1582.5,15,73,259,99,281,4,1
"2892",16,59,0,2,2025.9,82,61,179,219,303.98,1,6
"2902",16,59,0,3,2025.9,82,61,179,219,480.11,2,5
"2912",16,59,0,4,2025.9,82,61,179,219,197,3,4
"2923",16,59,0,2,2025.9,82,61,179,219,262.8,4,3
"2933",16,59,0,4,2025.9,82,61,179,219,362,5,2
"2943",16,59,0,2,2025.9,82,61,179,219,42.2,6,1
"2972",16,61,1,1,945.18,83,40,116,280,377.02,1,3
"2982",16,61,1,3,945.18,83,40,116,280,273.01,2,2
"2992",16,61,1,4,945.18,83,40,116,280,78.86,3,1
"3002",16,62,1,1,2369.2,60,29,195,270,275.89,1,6
"3012",16,62,1,3,2369.2,60,29,195,270,283.04,2,5
"3022",16,62,1,4,2369.2,60,29,195,270,281.11,3,4
"3032",16,62,1,2,2369.2,60,29,195,270,468.1,4,3
"3042",16,62,1,4,2369.2,60,29,195,270,199,5,2
"3051",16,62,1,1,2369.2,60,29,195,270,359.9,6,1
"3061",16,63,0,2,873.9,67,94,219,95,212.87,1,2
"3071",16,63,0,4,873.9,67,94,219,95,270.88,2,1
"329",16,68,0,1,1774.8,14,56,268,185,116.02,1,5
"330",16,68,0,2,1774.8,14,56,268,185,301.15,2,4
"3311",16,68,0,4,1774.8,14,56,268,185,228.06,3,3
"3321",16,68,0,3,1774.8,14,56,268,185,497.3,4,2
"3331",16,68,0,1,1774.8,14,56,268,185,172.8,5,1
"3381",16,70,1,3,1500.3,81,71,221,286,127.76,1,5
"3391",16,70,1,4,1500.3,81,71,221,286,201.98,2,4
"3402",16,70,1,2,1500.3,81,71,221,286,389.87,3,3
"3412",16,70,1,1,1500.3,81,71,221,286,327.1,4,2
